/*--------------------------------*- C++ -*----------------------------------*\
| =========                 |                                                 |
| \\      /  F ield         | OpenFOAM: The Open Source CFD Toolbox           |
|  \\    /   O peration     | Version:  2112                                  |
|   \\  /    A nd           | Website:  www.openfoam.com                      |
|    \\/     M anipulation  |                                                 |
\*---------------------------------------------------------------------------*/
FoamFile
{
    version     2.0;
    format      ascii;
    arch        "LSB;label=32;scalar=64";
    class       volScalarField;
    location    "0.01";
    object      ddt0(k);
}
// * * * * * * * * * * * * * * * * * * * * * * * * * * * * * * * * * * * * * //

dimensions      [0 2 -3 0 0 0 0];

internalField   nonuniform List<scalar> 
12885
(
808.374
44.2425
-2876.6
-1268.27
1299.74
2677.38
2558.13
1562.87
-4010.26
-6279.32
-1913.57
2371.51
5123.84
5689.6
4164.12
-1942.26
-9234.36
-7055.55
-3102.54
1242.14
4889.72
7028.19
6751.2
3264.18
-1474.34
-4383.2
-5513.57
-5200.33
-3863.46
-1968.58
66.1247
1821.45
3070.19
3616.58
3578.61
3003.55
2121.98
1250.26
-65.4918
-425.933
46.519
20.5618
-140.376
-174.771
98.552
188.321
191.318
129.981
-102.832
-884.91
-552.937
339.089
969.976
1053.6
812.969
202.2
-1605.13
-2288.93
-1753.46
-460.953
1041.35
2353.62
2848.69
2074.59
763.038
-673.955
-1767.6
-2410.14
-2645.84
-2323.68
-1498.58
-414.012
709.576
1587.66
2156.66
2308.02
2199.76
1755.63
1371.73
721.289
7.73066
3.06732
-17.6419
-16.8044
-6.9785
15.3862
19.5038
18.3118
-5.36717
-20.3433
-45.4737
24.8239
67.7439
78.3044
68.1094
33.0042
-52.6611
-243.596
-355.271
-255.306
-10.1277
304.258
483.675
535.487
477.565
266.285
-8.83278
-296.822
-591.426
-837.432
-903.716
-801.91
-494.671
-101.646
344.623
703.785
997.252
1135.1
1182.46
1085.92
2.33308
1.06728
-4.2314
-5.87749
-3.58787
2.68582
4.93908
3.75699
2.65715
-1.47829
-4.54474
4.69557
10.3804
7.16358
9.22241
-1.46809
-15.3995
-22.3578
-35.6194
-41.0764
-18.6636
17.0524
40.8095
56.0103
56.4455
54.1543
41.9554
9.78504
-23.5532
-62.838
-108.525
-155.107
-159.955
-121.694
-72.9585
22.6737
96.298
188.405
236.81
320.505
1.05164
-0.397625
-1.60827
-2.41678
-1.71661
0.769011
2.00705
1.80079
1.33181
-0.216511
-1.28317
1.13096
2.58883
1.80137
1.96146
-0.828776
-4.24952
-5.95231
-8.72391
-9.60174
-6.93498
-1.36865
5.11344
9.31332
10.8832
13.821
16.0289
8.67203
3.31006
0.887547
-6.85468
-15.4679
-22.9061
-24.4501
-24.5709
-16.0792
-7.67975
8.86027
13.7525
29.5548
0.405569
-0.459322
-0.919955
-1.2048
-0.886921
0.290893
0.990471
0.987968
0.612806
-0.126141
-0.435781
0.388035
0.887528
0.667363
0.3639
-0.573148
-1.71898
-2.68585
-3.34455
-3.15065
-2.52691
-0.797827
1.51249
3.20007
4.23503
5.46314
6.01842
4.79383
3.18597
1.60035
0.129134
-2.85683
-5.65502
-6.11274
-7.74245
-7.17079
-6.19984
-3.75948
-2.13381
0.679751
0.139946
-0.313458
-0.597658
-0.648256
-0.480025
0.139827
0.511276
0.521186
0.29865
-0.0121031
-0.0669097
0.244066
0.391998
0.219432
-0.0960641
-0.539338
-0.988131
-1.35009
-1.47219
-1.30373
-0.877599
-0.13244
0.751685
1.4443
1.91632
2.31728
2.4413
2.11866
1.56721
0.913981
0.141637
-0.697798
-1.43919
-2.24568
-2.86156
-3.07468
-2.97287
-2.52783
-1.97886
-1.3057
0.0423916
-0.18418
-0.357375
-0.363675
-0.258188
0.0624851
0.259991
0.267644
0.165168
0.0624145
0.0807754
0.194144
0.195692
0.0291602
-0.219035
-0.469884
-0.660269
-0.753946
-0.708311
-0.531973
-0.249794
0.111334
0.473278
0.745264
0.914817
1.00972
0.993371
0.843377
0.607181
0.323023
-0.00808935
-0.362577
-0.701342
-1.0163
-1.25965
-1.38872
-1.41174
-1.34367
-1.19445
-0.98173
0.0102344
-0.0983884
-0.193506
-0.197962
-0.138296
0.0245259
0.127329
0.137249
0.106138
0.0916783
0.120716
0.150612
0.0998896
-0.0432442
-0.221978
-0.375397
-0.460539
-0.460141
-0.373727
-0.223609
-0.0391238
0.148981
0.305772
0.405504
0.44675
0.439543
0.384434
0.285552
0.158864
0.018365
-0.126018
-0.289655
-0.45121
-0.593376
-0.70054
-0.762145
-0.777664
-0.751745
-0.689809
-0.603612
0.00123592
-0.0488789
-0.0959751
-0.100618
-0.0719456
0.00537063
0.0573231
0.0719405
0.0775635
0.0944223
0.114281
0.106206
0.048326
-0.0646163
-0.180527
-0.276572
-0.320881
-0.30176
-0.227221
-0.119038
-0.000883911
0.107118
0.188659
0.233435
0.239541
0.210823
0.152842
0.0735383
-0.016477
-0.108502
-0.192034
-0.265712
-0.3285
-0.377224
-0.408699
-0.421205
-0.407443
-0.372419
-0.329976
-0.290484
-0.000619832
-0.022895
-0.0443973
-0.0459041
-0.0347437
-0.00401261
0.0187104
0.0344989
0.061274
0.0987565
0.120849
0.0974871
0.025318
-0.0839701
-0.190933
-0.262968
-0.277456
-0.23034
-0.13907
-0.0336002
0.0579752
0.118496
0.142655
0.133338
0.0974376
0.0429476
-0.0218452
-0.0901686
-0.154959
-0.209968
-0.252109
-0.266642
-0.26263
-0.245326
-0.218977
-0.188161
-0.153702
-0.135379
-0.109106
-0.0961221
-0.000721926
-0.00916016
-0.0197222
-0.0194162
-0.0155185
-0.00616958
0.000176566
0.0116846
0.0447683
0.0936575
0.124581
0.104049
0.023294
-0.0892963
-0.205847
-0.277465
-0.279601
-0.211853
-0.0992399
0.0193942
0.10871
0.149013
0.138389
0.087258
0.010878
-0.0760622
-0.156755
-0.227325
-0.280546
-0.310526
-0.316068
-0.295267
-0.275495
-0.230498
-0.184708
-0.136222
-0.0952269
-0.06567
-0.0464556
-0.0387876
3.1575e-05
-0.0037556
-0.00753363
-0.00707342
-0.00521241
-0.00334474
-0.000995873
0.00782291
0.0316266
0.0662046
0.0881476
0.0735094
0.0146198
-0.0742255
-0.16323
-0.220655
-0.226458
-0.179004
-0.0951162
-0.00277493
0.0702668
0.105854
0.0989127
0.0552697
-0.013908
-0.101974
-0.155086
-0.221913
-0.284422
-0.308549
-0.314477
-0.302515
-0.278288
-0.245328
-0.207747
-0.170446
-0.137648
-0.111963
-0.0948256
-0.0870252
0.000297706
-0.00128466
-0.00284462
-0.00279245
-0.00121519
-4.29761e-05
0.00375057
0.00927665
0.0189331
0.029798
0.0335612
0.0218889
-0.00779904
-0.0494011
-0.0905208
-0.118277
-0.124649
-0.108902
-0.0772693
-0.0402974
-0.00903845
0.00821713
0.00760491
-0.0103125
-0.0416812
-0.081006
-0.120217
-0.157346
-0.188538
-0.210712
-0.223532
-0.227896
-0.225613
-0.218744
-0.209374
-0.199509
-0.190831
-0.184605
-0.181697
-0.182607
0.000450345
9.2674e-05
-0.000478095
-0.000307056
0.00126045
0.00268347
0.00505876
0.00700316
0.00657521
0.00382462
-0.00177776
-0.00997548
-0.0194047
-0.0280615
-0.0343366
-0.0376759
-0.0386261
-0.0384449
-0.0386157
-0.0403855
-0.044439
-0.0508205
-0.05908
-0.0685097
-0.0783539
-0.0879493
-0.096792
-0.104804
-0.112055
-0.118745
-0.125204
-0.131809
-0.138913
-0.146784
-0.155591
-0.165404
-0.176203
-0.187885
-0.200306
-0.213216
0.000446431
0.000710581
0.000715481
0.000854097
0.00133866
0.00185653
0.0019194
0.00109001
-0.00104901
-0.00445711
-0.0082257
-0.0110947
-0.012016
-0.0108099
-0.0083091
-0.00608325
-0.00578419
-0.0085367
-0.0146293
-0.023523
-0.0340818
-0.0449308
-0.0547986
-0.0627787
-0.0684591
-0.0719334
-0.0736924
-0.0744757
-0.0751032
-0.0763365
-0.0787848
-0.0828559
-0.0887487
-0.0964741
-0.10589
-0.116764
-0.128792
-0.14164
-0.155007
-0.168642
0.000219982
0.000433599
0.00044802
0.000352822
0.000229872
2.48309e-05
-0.000462038
-0.000966744
-0.00183357
-0.00227018
-0.00266059
-0.0025748
-0.00196399
-0.00104901
-0.000217837
6.42689e-05
-0.000597751
-0.0023798
-0.0052153
-0.00884541
-0.012912
-0.0170458
-0.020951
-0.0244535
-0.0275154
-0.0302149
-0.0327155
-0.0352229
-0.0379435
-0.0410538
-0.0446821
-0.0489029
-0.0537404
-0.0591765
-0.0651628
-0.0716177
-0.0784527
-0.085576
-0.0929161
-0.100416
-0.000121632
-0.000362531
-0.000623627
-0.000848603
-0.000884273
-0.000578516
0.000112384
0.00110069
0.00173982
0.00259854
0.00326297
0.00385202
0.00436076
0.00478044
0.00512016
0.00545809
0.00592392
0.00661945
0.0075778
0.00874
0.00997146
0.0111011
0.0119679
0.0124586
0.0125258
0.0121868
0.011509
0.0105899
0.00953387
0.00842159
0.00728964
0.0061396
0.0049515
0.00369518
0.00233852
0.000852136
-0.000788776
-0.00260521
-0.00461881
-0.00683944
-0.000339439
-0.00107783
-0.0017533
-0.00212829
-0.00181692
-0.000454209
0.00200831
0.00511073
0.00695814
0.00876776
0.00933212
0.00930808
0.00919617
0.00950768
0.0105826
0.0125366
0.0152515
0.0183839
0.0217926
0.0251724
0.0284028
0.031498
0.0345616
0.037719
0.0410615
0.0446188
0.0483614
0.0522134
0.0560447
0.0596574
0.0628582
0.0655465
0.0677479
0.0695629
0.0711214
0.0725528
0.0739715
0.0754372
0.0770616
0.078339
-0.000354099
-0.00137973
-0.002393
-0.00295286
-0.00240297
-2.8102e-05
0.0043737
0.00979621
0.0143867
0.0160712
0.0157437
0.0137362
0.0115645
0.0112729
0.0137503
0.018654
0.0248776
0.0287237
0.0333857
0.0358159
0.0374788
0.0394796
0.0428629
0.0482116
0.0554842
0.0640811
0.0730644
0.0813761
0.0877601
0.0911794
0.0935656
0.0951037
0.0961054
0.0968924
0.0977443
0.0988781
0.100435
0.10248
0.105009
0.107972
-0.000174852
-0.00135792
-0.0023937
-0.00266087
-0.00152646
0.00189548
0.00848618
0.0173448
0.0251099
0.0282763
0.0246865
0.0178054
0.0113956
0.00932844
0.0131695
0.0216058
0.0314429
0.0393575
0.0437964
0.0448059
0.0440136
0.0436602
0.0456698
0.0510005
0.059439
0.0698178
0.0805508
0.0899995
0.0965463
0.1028
0.108087
0.111257
0.112719
0.113249
0.113535
0.114095
0.11527
0.117222
0.119959
0.123374
-0.000149734
-0.00245043
-0.00265014
-4.80754e-05
0.00447842
0.00919811
0.0157727
0.0263658
0.0376747
0.0424947
0.0362315
0.0218015
0.00659964
-0.00111803
0.00329836
0.0183936
0.0379574
0.0547549
0.0638382
0.0639792
0.057489
0.0488004
0.0424907
0.0415969
0.0468914
0.0572306
0.0704769
0.0844912
0.0983322
0.112526
0.122535
0.128567
0.131449
0.132375
0.132565
0.133007
0.134335
0.136816
0.14041
0.144852
-0.00208528
-0.0126098
-0.011204
0.00199042
0.0226134
0.0332072
0.0317185
0.0333253
0.0447396
0.0550036
0.0504057
0.0284995
-0.0019511
-0.0249138
-0.0259778
-0.00261152
0.0354305
0.0732483
0.0981089
0.103071
0.0888528
0.0631703
0.0369759
0.0192596
0.0137884
0.0197975
0.0341419
0.0532708
0.0746377
0.096578
0.117373
0.135868
0.151641
0.164953
0.176411
0.186542
0.195562
0.20342
0.209879
0.214581
-0.00935463
-0.0554784
-0.0518024
-0.0133139
0.0652602
0.106019
0.074852
0.026911
0.0205705
0.0481496
0.0682717
0.0573867
0.0108765
-0.049494
-0.0831608
-0.0686031
-0.0105294
0.0685625
0.145248
0.193183
0.193201
0.14636
0.0745746
0.00338422
-0.0552685
-0.0971425
-0.121605
-0.130668
-0.121111
-0.086872
-0.0271322
0.0519918
0.14118
0.232024
0.318487
0.395414
0.457681
0.50217
0.528189
0.536268
-0.0242097
-0.19484
-0.18276
-0.0795259
0.153896
0.318227
0.206392
-0.0273386
-0.118208
-0.0327933
0.0859706
0.157363
0.121122
-0.0212251
-0.155365
-0.218969
-0.173566
-0.0498601
0.169075
0.412257
0.55308
0.516686
0.346497
0.1223
-0.150871
-0.435939
-0.673478
-0.858245
-0.965927
-0.926738
-0.715697
-0.370955
0.0450874
0.479454
0.898425
1.26967
1.54193
1.69427
1.74471
1.70871
-0.0174649
-0.604356
-0.526286
-0.264074
0.312777
0.94216
0.634091
-0.25605
-0.658224
-0.321994
0.122795
0.436935
0.481615
0.111936
-0.218008
-0.464442
-0.405015
-0.444704
0.0715399
1.04239
1.81941
1.87068
1.40773
0.872811
-0.0972368
-1.41544
-2.48111
-3.28812
-4.20376
-4.53692
-3.84191
-2.40129
-0.643964
1.23366
3.14931
4.96708
6.11624
6.36787
6.28295
6.02742
0.162618
-2.02721
-1.2929
-0.726554
0.465535
3.06762
2.24635
-1.31482
-2.96927
-1.33011
0.651781
1.39871
1.74637
0.318702
-0.876141
-1.34389
-3.28293
-2.38265
0.830989
5.60025
8.80309
8.16722
5.92261
4.76315
-0.0641775
-10.0393
-12.7597
-15.854
-20.6804
-22.5147
-15.0762
-3.73766
5.95701
9.70052
22.2758
30.3462
34.048
25.892
22.5637
19.7045
1.3069
-8.61641
-3.41385
-0.984058
1.64634
10.1995
9.96163
-7.37021
-17.6028
-10.3931
10.8627
11.1658
12.5858
5.11492
-8.25474
-15.9125
-37.4236
-34.7181
14.3706
51.3049
69.0308
63.9456
55.4381
33.7722
-1.00612
-89.2409
-121.671
-158.906
-193.795
-176.885
-76.8832
61.0788
180.787
262.016
297.489
289.921
248.778
181.883
91.8252
-7.6803
11.5383
-63.0714
-32.113
34.7102
68.9985
45.8284
26.6387
-66.4458
-323.67
-16.4972
242.479
304.722
253.294
119.535
-58.8209
-731.384
-864.738
-511.195
143.562
825.028
1163.3
1080.47
774.908
336.843
-958.769
-1408.99
-1518.5
-1439.05
-1215.5
-634.138
362.797
1379.42
2078.85
2319.14
2067.99
1449.93
650.238
-152.859
-844.169
-1359.51
221.535
-1124.33
-868.61
829.472
1721.12
1528.24
771.362
-3478.25
-2939.83
-588.225
1573.35
2860.03
3077.64
2287.76
-279.335
-6215.59
-4768.56
-2215.01
638.152
3087.97
4712.04
5242.56
4379.76
1052.7
-4978.08
-6184.51
-5818.93
-4260.94
-2166.61
85.2671
2439.22
4525.98
5729.86
5692.28
4515.74
2627.45
518.486
-1412.4
-2934.57
-3927
-24.2068
-24.4552
-25.0019
-25.8691
-27.0859
-28.6765
-30.6622
-33.1488
-35.4594
-37.8476
-40.9462
-44.8869
-49.4758
-54.4443
-59.4294
-64.5406
-68.1758
-71.8244
-74.7992
-77.2
-79.122
-80.7452
-82.3855
-84.4331
-87.2337
-90.9456
-95.5107
-100.757
-106.52
-112.667
-119.012
-125.22
-130.801
-135.29
-138.341
-139.537
-138.214
-133.613
-124.853
-110.546
-88.7611
-57.3889
-14.189
42.7171
113.576
205.312
329.212
475.358
639.789
823.04
1028.65
1126.07
1351.42
1486.2
1591.52
1635.52
1599.37
1528.78
1429.02
1310.88
1177.28
1035.4
900.752
796.514
696.309
600.564
507.637
418.165
335.028
261.445
196.81
128.718
69.2171
-55.1186
-73.7246
-74.4773
-68.6825
-60.445
-50.5194
-39.5257
-27.8528
-15.834
-3.77848
8.07267
19.6309
30.8168
41.5494
51.7519
61.3493
70.269
78.4442
85.8142
92.3307
97.9799
102.794
106.815
109.482
111.258
113.174
113.321
112.89
111.879
110.314
108.24
105.736
102.877
99.7368
96.391
92.9106
89.3612
85.8008
82.2791
78.8422
75.5345
72.3932
69.4433
66.6994
64.1701
61.8593
59.768
57.8964
56.2418
54.7975
53.5504
52.4812
51.567
50.7843
50.1107
49.527
49.0185
48.5729
48.1807
47.8347
47.5286
47.2577
47.0176
46.8039
46.6111
46.4332
46.2643
46.0992
45.9345
45.7683
45.6005
45.4311
45.2613
45.0917
44.9225
44.7531
44.5827
44.4105
44.2356
44.0572
43.8741
43.685
43.4884
43.2827
43.0663
42.8382
42.5977
42.3444
42.0792
41.8011
41.5121
41.2093
40.8979
40.5703
40.2414
39.889
39.5508
39.1659
38.7977
38.4052
37.8213
37.6003
36.6804
36.3267
34.8617
34.802
31.3376
-24.2738
-24.4773
-24.954
-25.7049
-26.7368
-28.0449
-29.5987
-31.3244
-32.9582
-34.7978
-36.9918
-39.5728
-42.4681
-45.5084
-48.4059
-50.8669
-52.4282
-53.187
-53.339
-52.7412
-51.5113
-49.8214
-47.9759
-46.3011
-45.0369
-44.2275
-43.7299
-43.3293
-42.8421
-42.1202
-40.9918
-39.1835
-36.3338
-32.135
-26.3954
-18.8856
-9.22798
2.98993
18.2285
37.2112
60.8723
90.1308
125.949
168.62
216.985
273.831
353.722
447.734
505.485
598.483
646.546
636.399
605.619
556.436
467.105
380.697
318.217
271.624
243.067
226.817
223.451
228.59
232.25
211.616
196.491
184.368
173.423
161.783
148.566
131.926
109.112
74.2008
36.3315
-25.0332
-21.3739
-17.1328
-14.9288
-12.6427
-10.0229
-7.09864
-3.7282
-0.161637
3.57384
7.41051
11.3044
15.2031
19.0489
22.7858
26.361
29.7236
32.8319
35.6476
38.1374
40.2976
42.1431
43.6668
44.5454
45.1077
45.7947
46.0453
45.6347
45.1761
44.5212
43.6707
42.6666
41.5381
40.3137
39.0243
37.6967
36.3554
35.0227
33.7163
32.4515
31.2427
30.1023
29.038
28.053
27.1494
26.3277
25.5873
24.9265
24.3425
23.8315
23.3881
23.005
22.674
22.387
22.1365
21.916
21.7209
21.5471
21.3913
21.2511
21.1242
21.0088
20.9031
20.8056
20.7141
20.6266
20.5411
20.4561
20.3706
20.2838
20.1959
20.1064
20.0157
19.9237
19.8304
19.7355
19.639
19.5406
19.4402
19.3376
19.2324
19.124
19.0118
18.8951
18.7733
18.646
18.5129
18.3736
18.2287
18.0771
17.9203
17.7558
17.5878
17.4093
17.233
17.0364
16.8563
16.6304
16.4404
16.2032
15.8972
15.7878
15.3375
15.0999
14.5448
14.4943
13.4766
-24.4985
-24.6152
-25.0007
-25.6259
-26.481
-27.5504
-28.7986
-30.1727
-31.6368
-33.2818
-35.1505
-37.2279
-39.4446
-41.6501
-43.5876
-44.9149
-45.3678
-44.5496
-43.4263
-41.3343
-38.5306
-35.2397
-31.7988
-28.5073
-25.5539
-22.9335
-20.4829
-18.0038
-15.3456
-12.379
-8.96663
-4.89908
0.0788094
6.15492
13.4232
21.9981
32.0685
43.8109
57.4129
73.1822
91.4637
112.657
137.347
164.286
192.868
225.004
258.603
283.015
293.219
281.886
248.687
195.886
148.559
107.29
77.9627
63.7767
60.713
60.1529
63.3472
71.9639
84.6241
99.1433
106.945
105.201
106.424
108.04
109.029
109.212
105.054
95.5633
79.4503
53.9992
24.7702
2.46865
5.91283
6.81321
6.3187
5.73568
5.47609
5.52429
5.86748
6.33055
7.01042
7.90811
8.99222
10.2157
11.5277
12.8778
14.2259
15.5286
16.7568
17.8819
18.8767
19.743
20.4769
21.0525
21.3431
21.4664
21.7025
21.7866
21.5007
21.1891
20.8441
20.4114
19.9261
19.4009
18.8441
18.2726
17.6977
17.129
16.5759
16.0449
15.5406
15.067
14.6286
14.2279
13.8635
13.5341
13.2394
12.9787
12.7506
12.552
12.3801
12.2327
12.1062
11.997
11.9017
11.8174
11.7417
11.6735
11.6113
11.5539
11.5007
11.4506
11.4029
11.357
11.3122
11.2676
11.2223
11.1759
11.1278
11.0777
11.0256
10.9716
10.9155
10.8574
10.7975
10.7357
10.6721
10.6067
10.5394
10.4704
10.3995
10.3269
10.2522
10.1753
10.0958
10.0134
9.92774
9.8387
9.74575
9.64923
9.54806
9.44343
9.33261
9.21978
9.09729
8.97802
8.83868
8.71753
8.54994
8.42824
8.24435
8.05516
7.95013
7.71389
7.48363
7.25761
7.19251
6.79072
-24.9398
-24.8993
-25.1494
-25.612
-26.2648
-27.0922
-28.081
-29.2337
-30.5679
-32.1423
-33.9667
-35.9926
-38.114
-40.1366
-41.7653
-42.7568
-42.9084
-41.3927
-39.0456
-36.9577
-33.3604
-29.3439
-25.2403
-21.3147
-17.7302
-14.4736
-11.3852
-8.30274
-5.14157
-1.78814
1.85727
5.94762
10.6496
16.0624
22.2125
29.1271
36.8514
45.3943
54.7516
64.9342
75.9144
87.7345
100.833
113.617
119.889
127.337
132.441
123.34
109.91
84.9223
60.2778
46.7944
30.1437
23.4597
22.6388
26.015
32.7369
39.3565
48.8867
60.3525
66.9073
78.9887
83.6256
86.3604
89.4992
91.9676
92.0458
89.8708
84.7296
74.9118
61.7074
44.0777
26.948
20.4579
20.3486
19.3206
17.2514
14.8604
13.0311
11.3013
10.2742
9.34722
8.69076
8.33059
8.21583
8.29375
8.52308
8.8427
9.22397
9.62455
10.0194
10.39
10.7134
10.9895
11.2134
11.3151
11.3409
11.2773
11.2933
11.2209
11.0082
10.7741
10.5488
10.2837
10.0129
9.74589
9.4739
9.21266
8.96587
8.73671
8.5282
8.34223
8.17912
8.0383
7.91995
7.82589
7.75206
7.69274
7.64857
7.61787
7.60038
7.59253
7.59109
7.59484
7.60175
7.60979
7.61732
7.62318
7.62705
7.6292
7.62965
7.6284
7.6255
7.62064
7.61371
7.60452
7.59287
7.57842
7.56078
7.53992
7.5159
7.48894
7.45926
7.42722
7.39288
7.35642
7.31794
7.27758
7.23529
7.19125
7.14538
7.09783
7.04878
6.99841
6.94673
6.89376
6.83944
6.78353
6.72589
6.66636
6.60433
6.54007
6.47228
6.40214
6.32653
6.24968
6.1635
6.08119
5.97908
5.896
5.76713
5.68809
5.53828
5.42383
5.30307
5.20915
4.95306
4.91605
4.8232
4.58406
-25.5716
-25.3214
-25.402
-25.6507
-26.058
-26.626
-27.3612
-28.2878
-29.4657
-30.959
-32.7832
-34.8748
-37.0967
-39.2323
-40.9851
-41.991
-42.0385
-40.9126
-38.0867
-35.8501
-32.5356
-28.4716
-24.2519
-20.3451
-16.7943
-13.6313
-10.6864
-7.77895
-4.96618
-2.10656
0.865395
4.04431
7.53467
11.3858
15.5919
20.1234
24.9477
30.0164
35.2394
40.5123
45.679
50.8273
55.7506
59.0887
58.2661
58.1363
54.0964
48.9876
39.8472
31.8186
25.9081
22.4979
21.071
21.8644
24.9401
30.1698
37.0327
44.7301
54.2966
64.4536
68.4741
77.9418
81.2122
83.6154
85.2575
85.5271
84.1205
80.7147
74.9154
66.1618
53.9985
42.383
32.7194
29.6983
27.2602
24.8459
22.4174
19.1046
16.2571
13.8436
12.0011
10.2679
8.91564
7.9455
7.28203
6.83371
6.58789
6.47898
6.45285
6.48771
6.53872
6.60965
6.67848
6.71987
6.73969
6.70778
6.6144
6.49246
6.40396
6.27028
6.07681
5.87778
5.69329
5.50053
5.32418
5.17154
5.0257
4.90815
4.81678
4.75141
4.71169
4.69774
4.70842
4.74093
4.79128
4.85938
4.95055
5.04276
5.14126
5.24464
5.3517
5.46031
5.56526
5.66504
5.75883
5.84487
5.92185
5.98935
6.04818
6.09974
6.14491
6.18441
6.21897
6.24879
6.27402
6.29479
6.31119
6.32312
6.33034
6.33298
6.33145
6.32631
6.3181
6.30741
6.2945
6.27963
6.26297
6.24459
6.22443
6.20261
6.17905
6.15385
6.12729
6.09972
6.07129
6.04223
6.01269
5.98257
5.95181
5.92033
5.88742
5.85329
5.81646
5.77804
5.73458
5.69028
5.6368
5.58736
5.51882
5.46877
5.3752
5.33058
5.21282
5.15401
5.02635
5.02916
4.75932
4.82867
4.72167
4.44201
-26.2226
-25.6353
-25.5773
-25.5748
-25.674
-25.9249
-26.36
-27.0205
-27.9752
-29.3106
-31.068
-33.1745
-35.4537
-37.6551
-39.4685
-40.5843
-40.7774
-40.0002
-37.6051
-34.6346
-32.4061
-28.7247
-24.9454
-21.3384
-18.0123
-15.1925
-12.706
-10.6506
-8.31445
-5.99322
-3.6477
-1.27245
1.21851
3.90978
6.74756
9.67787
12.6629
15.7409
18.7521
21.6115
24.3447
26.8851
29.2847
30.9049
30.9182
31.4514
31.51
31.3093
30.9365
31.0925
30.2575
29.433
29.9651
31.4231
34.592
39.6755
46.3836
54.6298
63.5363
72.3919
76.8039
79.6937
83.6697
84.9398
85.1464
83.8021
80.8806
76.5535
70.8414
63.6749
55.4069
47.3319
40.0624
34.339
30.3308
26.6063
23.5253
19.7551
16.396
13.5785
11.2912
9.13933
7.44085
6.20786
5.34552
4.6953
4.26714
4.02915
3.89817
3.84047
3.82877
3.84161
3.86354
3.88077
3.88321
3.83654
3.72006
3.55761
3.4048
3.23321
3.03885
2.85076
2.68298
2.52826
2.40161
2.31348
2.2469
2.21212
2.21883
2.25757
2.32713
2.42646
2.55404
2.70609
2.87987
3.05076
3.25451
3.47935
3.66998
3.88238
4.08364
4.28551
4.47782
4.65808
4.82621
4.98167
5.12226
5.2475
5.35914
5.45958
5.55036
5.63258
5.70765
5.77625
5.83871
5.89531
5.94633
5.99182
6.03151
6.06557
6.09455
6.1193
6.14058
6.15917
6.17556
6.1901
6.20296
6.21419
6.22369
6.23149
6.23745
6.24158
6.24417
6.24563
6.24627
6.24648
6.24658
6.24668
6.24682
6.24701
6.24653
6.24551
6.24232
6.23799
6.22883
6.21887
6.1998
6.18437
6.15074
6.13375
6.07663
6.06421
5.98104
5.96779
5.84834
5.91717
5.65686
5.77451
5.68622
5.29138
-28.4227
-26.2232
-25.4852
-25.0026
-24.6942
-24.5689
-24.6663
-25.0108
-25.6304
-26.5981
-28.0014
-29.8204
-31.8967
-33.9828
-35.7824
-36.9993
-37.4066
-36.8932
-35.4415
-32.4858
-30.181
-27.7609
-24.4524
-21.4684
-18.8613
-16.4249
-14.1443
-11.8292
-9.70351
-7.4312
-5.26643
-3.15405
-0.938249
1.41229
3.8643
6.36654
8.80995
10.7367
12.8203
15.1016
17.4754
19.9641
22.7247
25.1413
27.2832
29.2505
31.6867
34.2996
37.592
41.2518
43.9389
44.614
45.044
46.1946
49.2136
54.5027
61.7096
71.7074
78.7828
83.3636
87.9281
90.0379
92.6449
92.2016
90.5254
87.2012
82.3833
75.9486
69.7063
63.3567
56.6898
50.0759
43.7357
37.7982
32.1828
26.9399
21.9155
17.7168
13.9477
10.6802
8.02545
5.75682
3.79856
2.4809
1.55358
0.984147
0.41662
0.269072
0.20977
0.242417
0.338041
0.466435
0.613031
0.760174
0.894774
0.81492
0.673897
0.531457
0.4092
0.28772
0.16151
0.0453836
-0.0513508
-0.129263
-0.176808
-0.187667
-0.171878
-0.116945
-0.0251
0.103553
0.265905
0.458766
0.680737
0.928182
1.1966
1.48327
1.79103
2.09804
2.34871
2.69563
2.97648
3.27332
3.54888
3.815
4.05991
4.29101
4.50414
4.69665
4.87121
5.03128
5.17903
5.31559
5.44281
5.5621
5.6739
5.77851
5.87632
5.96744
6.05152
6.12864
6.1994
6.26487
6.32598
6.38367
6.4387
6.4915
6.54227
6.5911
6.63787
6.68254
6.7249
6.76485
6.8026
6.83854
6.87308
6.90672
6.93998
6.97325
7.00677
7.04068
7.07443
7.10805
7.13982
7.17072
7.19691
7.22221
7.23842
7.2576
7.25956
7.27552
7.25514
7.27317
7.22617
7.25056
7.15285
7.26405
7.03403
7.20816
7.09016
6.72489
-29.1235
-25.222
-23.8669
-23.0245
-22.4609
-22.0375
-21.9237
-22.0512
-22.3051
-22.6738
-23.3427
-24.5062
-26.1054
-27.8816
-29.5205
-30.7143
-31.2177
-30.908
-29.8049
-27.3354
-24.916
-23.1627
-20.4797
-18.0817
-15.8371
-13.6971
-11.6318
-9.61302
-7.70209
-5.93619
-4.027
-1.97964
0.183289
2.471
4.86205
7.32718
9.84837
12.3583
14.5743
16.8294
19.2617
21.9733
25.202
28.2481
31.0023
34.6805
39.1949
44.179
49.3802
55.2801
60.7978
64.7557
66.1945
68.7366
73.3941
80.4522
89.6379
101.078
104.72
110.884
113.577
114.355
113.758
110.922
106.866
101.606
95.4448
88.5819
79.5515
69.7299
61.4977
53.7057
46.804
39.1322
31.8844
25.5697
19.9251
14.7398
10.1488
6.06323
2.52282
0.496088
-2.19286
-3.58259
-4.61746
-5.33202
-5.72157
-5.82716
-5.74375
-5.51978
-5.20233
-4.83207
-4.43253
-4.02289
-3.62558
-3.60698
-3.5909
-3.51412
-3.41306
-3.31636
-3.232
-3.15299
-3.07223
-2.98587
-2.88322
-2.75891
-2.61259
-2.43838
-2.23345
-1.99612
-1.72885
-1.43457
-1.11362
-0.767668
-0.398888
-0.0104328
0.388597
0.785029
1.1834
1.5853
1.90233
2.364
2.6999
3.07006
3.39791
3.70716
4.00081
4.26945
4.51352
4.73978
4.95099
5.14809
5.33283
5.50773
5.67363
5.83059
5.97914
6.11939
6.25091
6.37363
6.48812
6.5957
6.69754
6.7947
6.88827
6.97884
7.0666
7.15169
7.23412
7.31383
7.39057
7.46413
7.53455
7.60208
7.66712
7.73022
7.7921
7.85347
7.91498
7.97701
8.03935
8.10203
8.16329
8.22404
8.28033
8.33584
8.38244
8.43155
8.46457
8.50889
8.52038
8.56322
8.54802
8.6
8.52784
8.66162
8.47003
8.65632
8.54666
8.22631
-28.1987
-22.1266
-20.1284
-19.1894
-18.9126
-18.3155
-17.624
-17.228
-17.0951
-17.1887
-17.5971
-18.3906
-19.4993
-20.7451
-21.896
-22.7062
-22.9649
-22.5441
-21.4656
-19.5
-17.2405
-15.7129
-13.8689
-12.0217
-10.0947
-8.16941
-6.23721
-4.29611
-2.35231
-0.390151
1.65421
3.84081
6.14084
8.59779
11.1838
13.8477
16.6932
19.4579
21.7514
24.1157
26.6033
29.3036
32.2952
35.6579
39.6584
44.5561
50.4715
56.9648
63.8477
71.2199
79.3569
89.3098
97.2728
104.483
113.731
125.954
140.67
150.708
160.38
165.359
166.948
164.789
158.998
150.859
141.081
130.412
119.497
108.679
98.2332
87.723
76.1871
64.9121
54.0751
43.7491
34.7226
26.9837
20.1283
13.7249
7.90608
3.54886
-2.06821
-5.13831
-8.16237
-10.5016
-12.2019
-13.3394
-13.9632
-14.158
-14.0076
-13.5909
-12.9863
-12.2613
-11.4753
-10.6798
-9.90918
-9.06961
-8.37617
-7.68921
-7.07584
-6.5436
-6.08043
-5.67254
-5.30687
-4.97216
-4.65481
-4.34501
-4.03612
-3.72077
-3.39128
-3.04276
-2.6759
-2.29248
-1.89125
-1.46999
-1.02832
-0.569358
-0.102142
0.363232
0.821063
1.26532
1.71076
2.16107
2.53753
2.95753
3.40233
3.72963
4.06385
4.38716
4.66513
4.92347
5.16417
5.38817
5.59591
5.79095
5.97673
6.15132
6.31615
6.47141
6.61644
6.75092
6.87524
6.99091
7.0996
7.20236
7.30081
7.3958
7.48757
7.5763
7.66211
7.74505
7.82488
7.90132
7.97408
8.04308
8.10853
8.17083
8.23083
8.28953
8.34824
8.40771
8.46839
8.53043
8.59214
8.65433
8.71289
8.77136
8.82147
8.87419
8.91234
8.96009
8.97789
9.02144
9.01215
9.06671
8.99794
9.13106
8.95436
9.1454
9.03495
8.80075
-26.2094
-16.929
-13.9753
-12.8691
-12.7495
-12.4233
-11.9178
-11.7012
-11.8491
-12.2893
-12.9628
-13.7988
-14.7003
-15.5601
-16.2543
-16.6457
-16.6077
-16.0583
-14.9799
-13.4036
-11.1162
-9.49309
-7.54103
-5.38002
-3.29985
-1.29265
0.685372
2.67038
4.69063
6.77637
8.9601
11.2841
13.7537
16.3072
18.8877
21.4235
23.862
26.2778
28.8726
31.5509
34.4153
37.5931
41.2034
45.3218
50.1019
56.0783
63.4864
72.0585
81.8001
92.9375
106.119
121.007
140.549
158.068
175.634
202.41
228.96
244.839
259.543
266.655
269.231
262.775
250.363
233.193
212.989
191.57
170.401
150.279
131.849
115.116
100.307
87.3244
75.9106
63.6058
51.0418
39.094
30.1683
22.5122
15.0648
8.79936
1.09012
-3.4618
-7.86147
-11.648
-14.5496
-16.7239
-18.2211
-19.082
-19.3823
-19.2066
-18.6404
-17.7733
-16.698
-15.4838
-14.2371
-12.9402
-11.5156
-10.2383
-9.09771
-8.07725
-7.15803
-6.33071
-5.58799
-4.91924
-4.31036
-3.74912
-3.22668
-2.73313
-2.25554
-1.78381
-1.31638
-0.855004
-0.396815
0.0653504
0.538485
1.02432
1.51553
1.99887
2.46562
2.91572
3.35358
3.77769
4.19108
4.61481
5.00541
5.37148
5.64396
6.0344
6.28389
6.52269
6.74318
6.945
7.12727
7.28895
7.44707
7.58839
7.71923
7.8401
7.94984
8.04754
8.1329
8.20729
8.27323
8.33133
8.38417
8.43318
8.47892
8.52172
8.56163
8.59895
8.63355
8.66505
8.69281
8.71621
8.73505
8.74914
8.7593
8.76653
8.77305
8.78019
8.78949
8.80159
8.81507
8.83069
8.8441
8.8587
8.86566
8.87556
8.87257
8.87884
8.85749
8.85809
8.80901
8.81985
8.71054
8.79475
8.5865
8.74098
8.57599
8.23361
-24.137
-9.85471
-5.47445
-4.11089
-4.08505
-4.08528
-4.17626
-4.622
-5.38709
-6.3305
-7.34614
-8.342
-9.22559
-9.91723
-10.3404
-10.4284
-10.1309
-9.42441
-8.32707
-6.90454
-4.86891
-3.00761
-1.62251
0.333421
2.20851
4.05419
5.91043
7.82145
9.83149
11.9826
14.3155
16.8503
19.5802
22.4415
25.3512
28.2453
31.0987
33.9346
36.8201
39.8412
43.0844
46.6836
50.7965
55.5607
61.1968
68.5463
78.2879
90.4885
105.586
123.867
145.056
168.997
193.762
222.318
249.12
297.026
342.599
385.361
415.713
433.958
441.355
434.751
415.331
386.357
350.134
310.684
271.592
234.854
201.539
172.17
146.811
125.128
106.233
92.4514
81.5595
71.5135
58.6799
45.9215
33.7425
25.0283
17.9802
9.13559
4.19193
-1.92766
-6.70653
-10.6269
-13.8919
-16.3408
-17.9685
-18.8762
-19.1013
-18.6816
-17.7309
-16.3788
-14.7584
-12.9649
-10.813
-8.71387
-6.77075
-4.9314
-3.20709
-1.60701
-0.142424
1.18639
2.38444
3.46215
4.42975
5.29976
6.09215
6.82423
7.50184
8.12506
8.69872
9.23634
9.75677
10.2725
10.7817
11.2596
11.7022
12.1229
12.5235
12.9113
13.292
13.664
14.0202
14.3527
14.6656
14.9581
15.1976
15.407
15.5904
15.7481
15.8847
15.9929
16.0996
16.1851
16.2555
16.3156
16.3631
16.3964
16.4141
16.4167
16.4079
16.3874
16.3584
16.3232
16.2828
16.2378
16.188
16.1343
16.0769
16.0152
15.9493
15.8779
15.8003
15.7149
15.6218
15.5211
15.4162
15.3089
15.2027
15.098
14.9952
14.8955
14.7945
14.6961
14.5905
14.4883
14.374
14.2692
14.1381
14.0229
13.8645
13.746
13.5361
13.4573
13.1925
13.1127
12.9314
11.9697
-24.1663
-3.80911
2.09219
3.4311
3.2261
2.82388
2.58929
2.13173
1.32473
0.212526
-0.893282
-1.9201
-2.7944
-3.44246
-3.79877
-3.81782
-3.4765
-2.77636
-1.74385
-0.422079
1.1477
2.95726
4.2558
5.94483
7.62218
9.31295
11.0442
12.869
14.8515
17.0544
19.5149
22.2442
25.2079
28.3207
31.4811
34.6256
37.7515
40.8962
44.1275
47.5245
51.1896
55.2728
59.9803
65.6158
72.6391
82.5089
96.7637
115.519
138.782
165.289
192.446
216.875
234.698
255.809
291.575
346.424
420.815
507.103
583.424
628.059
666.021
676.941
660.548
627.824
578.733
516.002
449.076
385.778
327.771
276.788
233.718
197.848
167.865
142.719
121.279
103.193
89.2797
78.315
70.5391
59.7539
48.9064
38.1551
28.78
20.0878
11.6403
6.77516
1.49245
-3.31523
-6.96897
-9.92679
-12.2533
-13.739
-14.2173
-13.9586
-13.05
-11.5634
-9.75514
-7.51829
-5.02229
-2.44124
0.109772
2.58981
4.94201
7.14251
9.16852
11.0098
12.664
14.139
15.4611
16.6542
17.7261
18.6779
19.5149
20.2554
20.9313
21.5737
22.1924
22.7985
23.408
23.9552
24.4531
24.9138
25.347
25.7615
26.1639
26.554
26.9251
27.2608
27.5547
27.8114
28.0336
28.2235
28.3863
28.5228
28.6438
28.743
28.8276
28.9
28.9594
29.0034
29.0293
29.0365
29.0275
29.003
28.9659
28.9188
28.8634
28.8002
28.7302
28.6522
28.5686
28.4804
28.3879
28.2894
28.1835
28.0662
27.9361
27.7905
27.6328
27.4652
27.2845
27.097
26.9161
26.7433
26.5736
26.4103
26.2423
26.079
25.9059
25.743
25.559
25.3789
25.1769
24.9665
24.7277
24.5149
24.2657
23.9703
23.8377
22.2193
-25.4565
0.269224
7.07466
8.53861
8.27877
7.52741
7.00498
6.51853
6.07206
5.82533
5.3312
4.73415
4.10166
3.4608
3.08065
2.9769
3.16502
3.64408
4.39035
5.3597
6.4951
7.94116
9.3046
10.4165
11.8915
13.3983
14.9987
16.752
18.7245
20.9746
23.536
26.4058
29.5274
32.795
36.1016
39.3986
42.7092
46.0925
49.6204
53.3905
57.5512
62.3557
68.2336
75.7498
85.7009
100.062
120.261
144.277
168.584
187.957
199.829
206.253
211.664
231.86
271.438
320.292
376.663
470.25
608.22
692.318
816.615
912.801
942.499
883.711
864.689
804.918
712.948
620.205
531.531
447.234
374.014
314.436
265.739
226.165
193.979
167.121
144.015
123.669
105.484
91.1359
79.3133
69.9743
63.6361
54.0874
45.1665
36.8608
31.5385
20.0304
13.4025
9.31116
5.02788
0.409292
-2.69698
-4.60197
-5.90042
-6.42671
-6.30884
-5.47955
-3.9435
-1.94949
0.392248
2.96069
5.66046
8.45128
11.2249
13.8845
16.3651
18.6349
20.7084
22.6013
24.3043
25.8033
27.0945
28.1941
29.1497
30.0223
30.8442
31.5974
32.2449
32.8358
33.3775
33.8789
34.3477
34.7997
35.253
35.713
36.1678
36.5986
36.9943
37.352
37.6456
37.9087
38.1439
38.3551
38.5455
38.7168
38.8737
39.0212
39.1595
39.2855
39.3948
39.4847
39.5558
39.6089
39.6462
39.6707
39.685
39.69
39.6851
39.67
39.6466
39.6158
39.5807
39.5405
39.4956
39.4398
39.3701
39.2784
39.1659
39.0325
38.9039
38.8175
38.7239
38.629
38.5335
38.4396
38.34
38.2421
38.1369
38.0408
37.9341
37.8118
37.7107
37.5202
37.3954
37.1813
37.0498
36.7192
36.929
35.3516
-30.1466
0.561733
9.69754
11.9746
12.1234
11.7527
11.3528
10.9623
10.3131
9.40863
8.78193
8.37652
8.22547
8.46774
8.57431
8.67055
8.81956
9.05152
9.37515
9.88058
10.542
11.3424
12.3141
13.1441
14.2914
15.5718
17.0305
18.7138
20.6662
22.9299
25.5284
28.4495
31.6277
34.9491
38.3067
41.6624
45.0697
48.6267
52.4624
56.7287
61.6469
67.5761
75.0557
84.8643
97.8465
115.398
135.97
152.232
160.087
160.961
159.012
153.626
149.73
134.99
110.184
91.7585
83.4661
94.436
125.369
230.172
297.794
466.64
688.549
908.651
1022.96
1086.82
1044.8
884.494
797.336
690.853
579.471
488.086
411.411
347.197
296.482
256.68
223.636
194.801
169.679
147.801
128.661
111.819
96.5078
84.5546
74.4326
66.077
59.5242
52.6119
45.2105
38.2303
33.8594
28.1391
18.2408
14.5893
11.2743
8.44586
5.51057
3.09893
2.15863
2.19965
2.73776
3.44293
4.45834
5.93869
7.82843
9.95596
12.1467
14.3131
16.4653
18.6131
20.7009
22.6446
24.3769
25.8775
27.1943
28.4164
29.5989
30.7315
31.785
32.7592
33.671
34.5265
35.3229
36.0752
36.8158
37.5632
38.3079
39.0268
39.7021
40.3264
40.9224
41.4649
41.9607
42.417
42.8385
43.2288
43.5954
43.9476
44.2885
44.6152
44.922
45.2048
45.462
45.6935
45.9011
46.0883
46.2595
46.4166
46.5592
46.6858
46.7985
46.8987
46.9925
47.0813
47.17
47.2534
47.328
47.3803
47.405
47.3963
47.3515
47.252
47.1524
47.0585
46.976
46.9049
46.8409
46.787
46.7403
46.7062
46.641
46.5763
46.5377
46.4409
46.3883
46.2818
46.2224
46.0918
46.0834
45.2177
-39.5621
-4.66114
6.14445
9.61357
10.7237
11.1794
11.537
11.8857
12.1376
12.2114
12.095
11.7786
11.2966
10.7888
10.5408
10.4646
10.5067
10.662
10.973
11.2481
11.5692
11.9839
12.5775
13.1844
14.0789
15.1819
16.5349
18.1838
20.1166
22.3152
24.8431
27.6926
30.8148
34.1216
37.5169
40.9758
44.5082
48.1668
52.044
56.3461
61.5716
68.3098
77.0988
88.252
100.858
114.141
124.703
127.949
123.295
112.447
91.2832
52.885
6.55326
-41.5489
-72.1537
-113.161
-146.584
-168.35
-169.494
-143.178
-87.7177
-9.99979
18.0801
173.498
347.142
530.444
768.547
961.872
993.375
967.156
849.817
703.019
608.796
517.362
437.697
377.774
329.873
287.411
250.758
220.338
192.891
169.489
149.834
133.099
118.264
104.608
92.0662
81.2432
72.4087
64.8701
58.5567
53.1262
47.7882
42.2654
36.9281
33.3289
30.2905
22.9723
19.3309
16.6028
14.372
12.5974
11.2046
10.1914
9.98035
10.2137
10.3727
10.5191
10.8825
11.5862
12.5941
13.7662
14.9329
15.9987
17.007
18.0616
19.2255
20.4611
21.6967
22.9091
24.1148
25.307
26.4495
27.5302
28.5872
29.6601
30.746
31.8154
32.8417
33.812
34.7227
35.5754
36.376
37.1335
37.8528
38.537
39.1955
39.8416
40.4816
41.1113
41.7226
42.3082
42.8622
43.3807
43.8626
44.3109
44.7328
45.132
45.5089
45.8606
46.1907
46.4995
46.7945
47.0795
47.366
47.6559
47.9501
48.2348
48.4965
48.7201
48.9031
49.0474
49.1692
49.2793
49.3923
49.5086
49.6295
49.7537
49.8893
50.0455
50.2776
50.5082
50.7613
50.9768
51.2168
51.4278
51.6597
51.9465
52.154
52.1088
-55.1396
-14.122
-0.550028
4.55041
6.71698
7.85262
8.66478
9.32718
9.89219
10.3421
10.6773
10.9041
11.0358
11.0579
10.9871
10.8555
10.6818
10.4688
10.3672
10.4273
10.6108
10.9083
11.3418
11.8351
12.5062
13.3225
14.2908
15.4341
17.0136
18.9289
21.1345
23.6075
26.4224
29.528
32.6942
35.7114
38.5356
41.2624
44.1913
48.0503
53.7265
61.8488
72.2306
83.1269
92.4149
98.8394
99.55
92.3193
75.4712
45.7085
-2.9189
-61.555
-125.074
-180.318
-251.626
-343.989
-469.603
-581.086
-663.89
-679.578
-605.162
-549.608
-357.96
-214.867
-47.9881
79.2249
158.891
303.873
438.907
567.596
734.234
829.698
805.229
742.702
616.05
540.195
477.929
420.037
364.055
318.665
276.415
238.371
206.931
182.606
164.053
147.415
132.072
119.719
109.13
99.1823
89.6029
80.5904
72.714
66.2054
60.8258
56.45
52.3453
48.5286
44.3448
39.853
35.4089
31.9306
30.2655
27.6539
23.4649
21.5052
19.525
17.6222
16.0438
14.8697
14.1718
13.943
13.6974
13.0573
12.3146
11.795
11.5873
11.6388
11.8414
12.1623
12.6455
13.3202
14.0964
14.872
15.6542
16.5
17.4138
18.3584
19.3009
20.2258
21.1283
22.0081
22.8704
23.7233
24.5671
25.3991
26.2288
27.0736
27.9415
28.8264
29.7171
30.6019
31.4686
32.3049
33.1014
33.8548
34.5705
35.2515
35.8998
36.5123
37.0949
37.649
38.1793
38.6898
39.1948
39.7078
40.2399
40.7874
41.3362
41.8637
42.3562
42.8064
43.228
43.6326
44.0402
44.4519
44.8693
45.2838
45.7047
46.1399
46.6186
47.116
47.6342
48.14
48.6508
49.1811
49.6603
50.3632
50.8378
51.6994
-67.6394
-23.9546
-8.2632
-1.88019
0.902452
2.30804
3.20321
3.85131
4.35584
4.75748
5.08162
5.35009
5.53216
5.64536
5.70867
5.75028
5.80024
5.89327
5.96265
6.06435
6.23449
6.46903
6.7981
7.22158
7.75233
8.414
9.25019
10.3157
11.5388
13.1385
14.7059
15.7859
17.4903
19.5149
21.5494
23.6089
25.7754
28.3956
31.998
37.3309
44.2719
51.7315
58.5566
64.1628
68.4417
72.0831
74.7816
75.8849
74.8074
51.8024
-18.3051
-57.9994
-139.855
-228.021
-299.861
-328.756
-362.916
-416.323
-522.761
-732.103
-1023.09
-1272.14
-1322.63
-1124.84
-802.236
-543.324
-288.999
-71.9604
83.2438
165.275
208.064
282.722
386.365
490.982
631.57
676.075
656.245
616.879
535.731
481.055
432.639
374.359
315.336
266.604
228.8
197.506
166.96
144.471
130.793
121.775
113.036
106.049
100.208
94.4125
88.6019
83.3783
78.385
73.0052
67.7364
62.3953
57.2693
52.997
49.349
45.7836
42.3062
39.0019
36.108
33.788
32.045
30.5684
28.9954
27.2309
26.0826
24.4339
22.0378
20.9114
19.8565
18.9119
17.9711
16.8878
15.5551
14.2002
14.1514
14.2479
14.202
14.1113
14.0679
14.0675
14.0954
14.157
14.2564
14.3937
14.5753
14.8087
15.0757
15.3518
15.6495
15.9898
16.3795
16.8137
17.2869
17.7943
18.3279
18.8763
19.4304
19.9878
20.5645
21.1755
21.7977
22.4104
23.0108
23.5965
24.1639
24.7099
25.241
25.7742
26.3297
26.9191
27.5385
28.1671
28.7821
29.3668
29.9279
30.4812
31.053
31.6554
32.2915
32.9533
33.6345
34.3492
35.1045
35.8973
36.6839
37.49
38.2538
39.1262
39.8063
40.945
41.7028
43.4063
-88.9111
-39.1302
-20.3565
-11.5096
-7.4933
-5.39708
-4.02104
-2.9604
-2.07141
-1.30237
-0.631288
-0.0482564
0.452648
0.879766
1.24338
1.55489
1.82554
2.06511
2.2803
2.47952
2.67046
2.85926
3.05059
3.24679
3.44804
3.64842
3.82829
4.16425
4.73892
4.97305
5.2913
4.93271
3.5073
2.99997
3.19807
4.19636
6.48781
10.4885
17.3333
26.7054
36.5296
46.0219
54.7694
62.54
69.3624
75.8567
83.2945
90.2607
90.2792
75.7798
47.8572
18.1083
5.96301
-5.47349
-31.9088
-19.358
4.0027
34.7156
55.7999
50.0845
-7.54683
-217.993
-638.38
-1012.67
-1272.4
-1200.82
-1169.25
-1039.29
-680.982
-458.814
-276.044
-111.602
27.3685
96.3668
136.12
190.464
292.623
407.361
541.67
616.041
635.078
618.942
550.944
486.952
431.245
361.504
288.393
225.077
177.756
147.754
120.887
101.87
92.9256
89.569
86.9105
85.6895
91.8845
96.7999
98.0637
95.1721
87.9842
78.992
72.0402
66.4345
61.214
56.0079
50.7122
46.4935
43.608
41.3059
38.8194
36.2282
33.6398
31.0386
28.7729
27.0423
25.7496
24.6891
23.7956
23.1941
23.1117
23.5054
22.8669
22.0824
21.6121
20.7056
20.2636
19.8857
19.5382
19.2158
18.9174
18.6407
18.3922
18.2028
18.0734
17.9068
17.7329
17.5687
17.4282
17.3263
17.2544
17.1895
17.1068
16.97
16.7369
16.3222
15.6351
15.1552
15.2469
15.4338
15.6568
15.9047
16.1653
16.426
16.6801
16.9338
17.2012
17.4953
17.8195
18.1588
18.4849
18.7682
19.0001
19.1896
19.3613
19.533
19.7173
19.911
20.1133
20.3703
20.7853
21.3397
21.9596
22.6324
23.2948
24.1012
24.65
25.6849
26.4182
28.187
-118.149
-60.1328
-34.7524
-22.2139
-15.693
-12.078
-9.82246
-8.24185
-6.97041
-5.93609
-5.05611
-4.29916
-3.64686
-3.08623
-2.60621
-2.19766
-1.85338
-1.56968
-1.34863
-1.11763
-0.895133
-0.706196
-0.570547
-0.510531
-0.547217
-0.692227
-0.919305
-1.77989
-3.50532
-5.14177
-6.84607
-9.81005
-15.0018
-18.1043
-17.6601
-14.6103
-9.46019
-1.17591
9.12526
19.7433
30.078
39.6059
48.7721
57.06
65.4999
78.1584
105.251
163.051
226.65
241.357
224.711
180.234
126.649
79.0467
41.0595
27.7345
21.2178
85.2003
159.526
209.83
262.122
323.092
11.2264
-224.006
-531.381
-460.794
-421.615
-501.772
-865.165
-1002.72
-1063.06
-1039.93
-800.705
-558.366
-377.49
-216.837
-102.286
-16.6088
89.1832
136.676
242.837
361.324
505.572
616.177
674.913
674.797
607.8
514.714
438.391
352.065
263.926
186.745
131.016
99.9147
79.2531
64.8367
54.3889
51.2806
53.7375
63.7544
76.731
88.586
95.242
98.2024
97.4348
89.2549
78.5867
71.2139
66.4237
63.0016
58.2471
53.1341
48.3073
43.8179
39.9603
37.1447
35.4428
33.6588
31.828
30.1496
28.7972
27.7017
26.3043
25.0283
23.9715
23.22
22.6169
21.9439
21.1933
20.3979
19.5929
18.802
18.0283
17.2793
16.7767
16.181
15.5063
15.1333
14.8064
14.539
14.3238
14.1602
14.063
14.0451
14.1376
14.4051
14.9692
15.526
15.6728
15.757
15.8433
15.9443
16.0579
16.1759
16.2893
16.3989
16.5128
16.6377
16.7787
16.9351
17.0886
17.2082
17.2745
17.2843
17.2469
17.1734
17.0737
16.9231
16.5702
15.6074
14.4999
14.2366
14.2905
14.3712
14.5768
14.8096
14.9507
15.2348
15.5428
16.387
-121.42
-69.556
-45.0279
-32.2455
-25.3409
-21.1606
-18.3924
-16.454
-14.7406
-13.392
-12.2329
-11.2066
-10.2769
-9.32411
-8.382
-7.46615
-6.56902
-5.66952
-4.71119
-3.85738
-3.31244
-3.22703
-3.2171
-3.31712
-3.62693
-4.26132
-5.42775
-7.01654
-9.13558
-12.4377
-16.691
-21.5988
-26.3218
-29.0501
-28.6336
-25.4529
-18.8245
-9.80024
-0.635407
8.48428
17.8882
28.5823
37.5322
44.5074
49.8117
61.2382
108.965
167.599
226.562
279.344
288.138
292.724
272.36
177.769
123.25
79.6603
-43.3303
-55.0855
47.3145
110.536
248.293
572.996
385.925
-18.462
-152.577
-318.355
-102.321
-64.6119
7.89707
-135.626
-218.486
-423.621
-857.007
-1034.77
-1084.6
-1001.37
-846.135
-689.918
-510.79
-320.496
-158.238
-51.5584
60.5671
155.447
205.38
320.748
481.666
637.929
725.331
732.178
653.725
552.165
447.442
341.335
243.093
156.828
92.9216
55.9659
34.6332
15.9804
7.42125
-0.0353119
9.00427
17.7315
40.5711
65.5444
82.7913
94.2799
99.2278
99.6934
97.8697
91.6373
83.346
75.7143
68.8426
63.3977
60.9235
57.4272
53.1443
48.6519
44.4126
40.6954
37.2402
34.1199
32.0112
31.0131
29.8833
28.3947
26.7342
25.0315
23.3533
21.7377
20.2185
18.8335
17.5843
16.4123
15.4948
14.889
14.4791
14.1816
13.9519
13.7598
13.5998
13.5479
13.5877
13.7309
13.9824
14.1278
14.0197
13.8602
13.7079
13.5594
13.4179
13.2841
13.1617
13.0617
12.9915
12.9485
12.9233
12.9194
12.9229
12.8913
12.8024
12.6667
12.4835
12.264
12.0305
11.8133
11.7027
12.0401
12.8277
13.1666
13.3946
13.5598
13.7381
13.9106
14.0301
14.1645
14.331
14.6503
-110.384
-76.2631
-56.1165
-43.0681
-34.4429
-29.1169
-25.7468
-23.6727
-21.7194
-20.0198
-18.2846
-16.3642
-14.3539
-12.5739
-11.1998
-10.3982
-9.6087
-8.89651
-8.36941
-7.78256
-7.32815
-7.06844
-6.98579
-7.08439
-7.40306
-8.01695
-8.99297
-10.3113
-11.9992
-14.1092
-17.5049
-22.0293
-26.8964
-30.8032
-33.0754
-32.1053
-27.0688
-19.2955
-10.0083
-0.0647884
9.19304
13.1768
18.2575
25.3595
33.7146
32.7281
76.965
164.485
195.873
249.142
343.783
415.449
379.602
331.681
288.745
219.199
160.525
144.038
141.43
190.44
304.91
574.561
454.151
59.1709
-68.555
-172.169
-71.6853
-17.6496
144.824
65.4139
-25.1313
-49.3921
-92.3569
-170.967
-343.015
-675.885
-932.896
-1009.6
-977.61
-903.347
-776.683
-617.725
-452.585
-300.54
-176.125
-77.7718
-28.1438
77.2793
223.686
360.459
564.29
712.91
750.918
710.986
632.2
535.593
426.793
316.114
212.581
123.544
59.2002
20.6632
-0.686026
-53.1821
-65.957
-63.737
-47.6253
-27.424
-6.67066
7.76055
21.2309
62.4431
81.04
93.0686
101.801
105.383
104.022
100.863
94.4515
87.417
80.7411
74.7094
69.5586
64.6015
59.9138
57.3755
54.2034
50.1307
45.881
41.8769
38.2263
34.9321
31.9823
29.3821
27.0165
24.7239
22.9425
22.0542
21.1625
20.3164
19.4923
18.7968
18.2093
17.5827
16.972
16.3854
15.8086
15.2237
14.6526
14.1088
13.5941
13.1051
12.6381
12.2011
11.8126
11.4994
11.2599
11.0854
10.9367
10.8037
10.7426
10.6201
10.3847
10.1591
9.91573
9.66384
9.44004
9.30857
9.38732
9.85385
10.4969
10.7858
10.9258
10.9933
10.9968
10.9889
10.9508
10.8861
10.8249
10.8166
-76.2143
-62.3208
-52.8465
-45.851
-39.9895
-35.251
-31.4903
-28.3778
-26.0085
-24.0107
-21.8972
-20.0052
-18.0508
-16.1866
-15.1186
-14.222
-13.3699
-12.5529
-11.7329
-10.8616
-10.0839
-9.5077
-9.10064
-8.83216
-8.70823
-8.7419
-8.93562
-9.29837
-9.86312
-10.7648
-12.3757
-14.8852
-18.1981
-21.8624
-24.6768
-25.9305
-25.0566
-23.4049
-19.855
-14.7195
-8.16185
-0.203368
6.29744
12.2088
15.1789
15.8758
60.8497
119.521
186.429
207.596
241.699
302.367
307.003
290.442
245.122
201.746
177.073
190.512
216.374
310.304
625.205
673.478
277.075
-38.9287
-106.795
-55.7863
38.561
2.71406
-40.727
-22.8797
-7.97252
-5.78725
-6.92351
-15.0638
-37.9539
-104.12
-251.344
-606.119
-840.951
-909.714
-917.476
-842.956
-715.558
-577.079
-468.973
-411.585
-370.27
-285.843
-147.284
-36.252
75.7243
297
424.361
575.034
664.52
689.196
664.04
608.056
526.676
429.704
323.562
220.575
129.262
60.298
19.1994
-7.40096
-66.8632
-92.6363
-105.628
-102.324
-85.2583
-67.3841
-47.5247
-26.9703
-7.92265
3.58548
16.1543
47.738
61.2322
73.3169
83.2898
90.5785
96.207
100.88
102.484
97.9503
91.0884
83.8301
77.4511
72.0028
67.222
62.6784
58.3036
54.1746
50.2327
46.1305
42.7399
41.3791
39.561
37.339
34.9827
32.6035
30.3421
28.3589
26.6037
25.0072
23.5322
22.174
20.9315
19.8026
18.7718
17.815
16.9083
16.0427
15.23
14.5295
13.9237
13.4562
13.0964
12.7492
12.4206
12.0632
11.7292
11.3611
10.975
10.599
10.2755
10.0538
9.97329
10.0116
10.0473
10.0136
9.9362
9.8339
9.60154
9.47015
9.3729
9.18701
8.95659
8.73528
-37.3963
-33.7964
-29.8582
-27.0656
-25.1495
-24.0759
-23.8393
-24.2626
-23.9185
-23.3883
-22.8466
-21.9354
-20.5034
-18.4395
-16.0069
-14.8835
-13.4592
-11.8939
-10.1856
-8.35208
-6.49097
-4.66552
-2.88893
-1.1734
0.474271
2.09798
3.743
5.45046
7.23785
9.0574
10.787
12.2181
13.1474
13.4432
13.2986
12.8609
12.0927
11.6792
11.876
12.5762
13.4963
9.55995
11.685
12.9111
16.7106
20.3089
51.653
84.7814
150.098
168.928
193.886
234.205
244.774
236.263
207.375
201.466
224.537
223.564
342.488
669.01
786.029
339.777
-1.52529
-60.926
-24.4843
41.3348
10.19
-6.87104
-8.8245
-15.7234
-16.841
-12.454
-0.951816
8.96122
21.3315
9.41537
-18.3066
-105.621
-299.62
-658.642
-763.561
-814.118
-784.676
-699.336
-601.094
-534.187
-503.631
-481.699
-436.963
-346.538
-192.045
-38.8718
53.5852
265.752
362.293
449.57
538.857
601.26
628.074
620.168
573.809
493.492
396.074
292.498
195.885
113.903
54.5006
19.0509
-2.07638
-44.7548
-64.1422
-78.5659
-89.8674
-95.0287
-94.8174
-89.4453
-81.828
-69.3317
-56.2657
-43.6167
-30.9569
-18.3929
-8.50643
-2.95848
10.6742
34.7805
41.1259
48.9247
56.2684
62.5909
67.3819
71.0028
73.4205
74.6056
75.3458
75.8114
73.813
69.3073
65.5963
62.2558
58.9849
55.6527
52.2684
49.0647
46.4554
44.0348
41.6923
39.4218
37.2264
35.1316
33.1611
31.3433
29.7004
28.2302
26.8944
25.6635
24.3813
23.2335
22.2831
21.3039
20.3527
19.4461
18.5369
17.6654
16.8319
16.0509
15.3482
14.7493
14.2682
13.8882
13.5436
13.1953
12.8475
12.4932
12.1048
11.7213
11.3864
11.0082
10.7
10.226
-31.5353
-27.8459
-24.4261
-23.0532
-22.5262
-22.5582
-22.3978
-21.5429
-20.6977
-19.3832
-17.6142
-15.2227
-12.1015
-9.13186
-6.89664
-3.49292
0.631262
5.58021
11.253
17.1902
23.9111
30.5575
37.0576
43.2108
48.7685
53.7782
58.2706
62.3698
66.2488
70.0855
73.987
77.9084
81.6627
84.945
87.3922
88.6755
88.2348
86.0661
82.4836
78.6023
73.0381
64.8081
58.2907
53.2784
48.2247
43.4002
59.6671
77.3721
125.79
154.711
163.858
186.866
196.543
183.218
210.115
226.902
248.119
393.6
778.993
861.98
312.739
42.4638
-22.3888
-3.94027
11.4133
-7.16858
-12.9624
-18.3663
-21.968
-11.1812
-4.04284
-5.32941
-5.653
1.63893
8.52353
30.2451
19.7149
2.99935
-56.8254
-199.159
-509.324
-592.861
-632.185
-631.039
-603.965
-575.663
-564.633
-567.022
-554.707
-502.392
-404.593
-272.228
-112.086
2.32919
85.652
236.668
286.483
340.304
419.994
501.836
562.469
593.784
581.302
521.319
428.587
329.867
237.53
160.413
97.1892
53.1754
26.1034
14.1823
-5.21809
-24.4872
-33.3064
-42.4285
-46.7102
-52.8419
-58.6593
-62.4075
-64.0373
-65.3755
-65.9531
-65.3596
-63.3296
-58.3574
-52.2518
-45.3428
-38.4767
-32.2014
-25.9175
-19.5997
-14.4099
-11.2643
-6.48355
5.47726
14.1441
17.44
21.7762
26.0671
30.0515
33.4716
36.3424
38.7174
40.3312
41.6574
42.4576
42.6512
42.5547
42.2835
41.8533
41.3107
40.7167
40.0415
39.3175
38.3935
37.5001
36.4028
35.0301
33.6979
32.4137
31.2016
30.0423
28.9067
27.7674
26.6096
25.4345
24.2252
22.9932
22.0759
21.4392
20.8437
20.2629
19.6989
19.1626
18.6216
18.1204
17.5154
16.9966
16.1467
-37.6346
-40.4435
-39.8447
-38.8156
-32.1478
-23.8584
-14.53
-5.48972
3.24768
11.0976
18.0173
23.364
27.7391
30.9058
33.4331
36.6126
41.2207
49.6686
60.6019
70.3116
85.8226
100.106
114.118
127.318
139.334
149.184
156.52
161.49
164.676
167.023
169.673
173.645
179.46
186.884
194.843
201.677
205.937
206.444
201.294
193.69
184.739
164.734
155.16
143.631
126.749
101.762
96.1254
92.1003
123.419
130.906
141.045
151.034
175.68
203.158
244.793
298.993
453.734
886.651
875.672
311.828
34.1646
-22.9801
-4.34603
3.92139
-10.2083
-12.2883
-10.5978
-13.6395
-16.6493
-11.413
-3.93167
-3.56636
-5.09028
-0.293609
7.05028
13.5887
32.3938
15.9984
1.20833
-55.1949
-213.005
-446.736
-446.76
-458.699
-479.421
-510.306
-547.268
-584.408
-602.822
-581.441
-509.383
-392.024
-255.919
-129.183
-14.9706
37.7801
120.917
172.737
219.362
289.572
381.026
463.722
531.216
568.645
558.433
498.807
407.773
314.177
233.904
169.405
119.792
80.3857
52.0081
32.7856
20.7936
14.6744
5.42896
-4.30252
-11.4194
-18.6879
-25.0059
-30.6468
-33.5967
-34.1825
-32.96
-34.3822
-36.4532
-37.7767
-38.5405
-38.9751
-39.1592
-39.2535
-39.5221
-39.7165
-37.3474
-33.9148
-31.072
-28.3143
-25.4275
-22.3326
-18.8756
-15.4394
-12.2431
-10.3228
-8.86113
-6.67246
-1.64774
2.0172
2.78899
4.42899
6.10666
7.69186
9.22551
10.7765
12.3095
13.637
14.7411
15.6241
16.2689
16.7571
17.1063
17.4006
17.7094
18.0412
18.3896
18.7562
19.1356
19.593
20.1566
20.3967
20.2778
20.1335
19.9697
19.8548
19.7214
19.6382
19.4771
19.3368
18.9529
18.5835
-163.719
-219.782
-231.972
-223.412
-175.954
-113.582
-53.3725
-0.528743
45.8397
69.8104
96.6492
103.022
100.908
92.3047
79.5801
65.4904
52.5203
40.6295
33.4097
31.0037
34.9854
44.6886
59.564
78.447
99.5031
120.435
138.74
152.236
159.662
161.186
158.59
155.096
154.281
158.46
168.304
182.022
195.781
206.218
209.514
207.816
204.029
195.062
187.2
188.715
180.889
163.377
145.85
124.947
129.106
134.368
148.562
184.361
225.723
286.357
355.405
512.389
909.943
874.244
330.354
57.7983
-35.6344
-19.5759
-8.94493
-8.54025
-15.7262
-11.9644
-10.1956
-14.2227
-18.0089
-13.4243
-3.69648
-0.315823
-2.82338
-1.61109
5.0116
9.22017
25.7089
21.5377
8.56107
-12.6116
-93.2152
-316.998
-341.734
-316.204
-324.716
-381.959
-466.404
-548.369
-602.124
-607.972
-557.021
-457.115
-332.083
-207.03
-107.3
-35.4587
13.9324
36.7111
84.4631
136.64
210.967
310.086
400.006
472.756
524.589
540.065
506.873
435.049
351.744
275.052
210.61
160.614
122.068
93.5238
71.283
53.8936
40.1026
29.4232
22.3356
16.4354
11.1043
4.464
1.01954
-1.96665
-3.49599
-7.05527
-10.7893
-14.005
-15.8398
-16.8426
-17.674
-17.7755
-16.7656
-14.3505
-13.121
-12.5157
-11.9692
-11.3835
-10.6817
-9.93293
-9.47118
-9.00407
-8.82277
-9.10042
-9.7125
-8.92323
-7.37321
-6.26389
-5.25662
-4.19387
-3.11443
-2.12047
-1.57925
-1.04825
0.00371837
1.52961
1.77166
2.12187
2.59577
3.05279
3.47391
3.91613
4.40609
4.94399
5.53745
6.12864
6.69362
7.16672
7.40253
7.81553
8.28038
8.66229
9.03419
9.44917
9.83303
10.2188
10.4689
10.6704
10.6026
10.5847
-779.079
-786.188
-810.805
-776.028
-657.591
-523.702
-388.974
-260.366
-144.256
-46.447
32.4897
89.3884
124.915
140.81
140.452
128.072
107.38
82.0713
56.109
32.4244
13.9358
2.84234
0.782996
8.54579
25.6872
50.1686
78.3496
105.488
126.718
138.521
139.874
133.052
123.769
117.674
118.81
129.8
146.631
164.751
177.731
182.613
182.109
176.486
172.237
175.867
177.28
175.333
172.106
154.314
161.343
180.644
196.431
236.264
317.565
395.138
527.33
842.668
900.894
397.48
97.9971
-21.9803
-17.7599
-14.5611
-14.8659
-16.8359
-13.2365
-9.6159
-10.6538
-14.6335
-15.9304
-11.6053
-3.70035
0.438518
-0.822135
-1.13082
3.2903
7.26072
15.3521
24.1841
10.6773
-0.690145
-49.6276
-223.787
-296.21
-240.311
-211.029
-252.297
-355.453
-476.262
-567.965
-601.881
-570.456
-484.712
-368.544
-250.238
-154.968
-89.0063
-58.5454
-41.8772
-10.6376
17.1469
80.9846
174.797
281.502
375.142
443.756
488.292
507.146
481.011
421.892
352.974
287.266
232.26
186.029
149.075
121.496
98.977
80.9321
65.783
53.7707
44.0212
35.4313
28.9489
24.8369
21.1996
16.3121
12.3673
9.86634
5.71993
2.65215
1.30543
0.623779
0.159596
0.536595
1.63941
1.63358
1.38764
1.37134
1.44376
1.40401
1.41437
1.53785
1.89451
2.53172
3.67273
5.65336
6.97276
7.58673
8.08565
8.55621
9.0367
9.48871
9.85236
10.1604
10.5493
11.0283
11.3516
11.4872
11.6231
11.7385
11.7922
11.7739
11.6614
11.36
10.7098
10.2135
10.2722
10.3549
10.4032
10.4726
10.3262
10.1502
10.1536
10.2293
10.344
10.4633
10.5403
10.5737
10.4868
10.3401
10.0135
-839.648
-978.644
-1031.18
-1009.34
-948.946
-849.303
-719.213
-573.984
-427.095
-284.987
-155.936
-46.8999
39.3608
101.947
141.35
159.374
158.936
143.297
116.061
81.226
43.3875
7.58615
-21.2754
-38.5393
-40.7199
-26.8281
0.775752
36.6247
72.8801
101.499
116.412
115.452
103.083
87.1144
76.4612
77.9028
90.6621
111.518
133.872
148.514
153.973
150.754
148.219
152.541
159.715
170.376
185.338
188.62
207.155
234.581
253.098
344.766
415.111
549.243
762.786
897.08
446.78
144.244
21.5915
0.0982695
-13.108
-15.5579
-12.428
-13.3155
-13.7725
-10.5061
-10.9805
-15.219
-15.9924
-10.8529
-3.31893
0.973771
0.726888
0.0867202
2.60611
5.99055
10.4792
20.8928
11.2887
3.94219
-28.6927
-141.636
-284.428
-204.798
-140.566
-145.097
-234.069
-377.202
-507.969
-573.696
-563.138
-490.809
-383.303
-271.894
-181.528
-124.599
-105.187
-102.186
-97.457
-69.2065
-13.1453
46.7062
158.706
271.589
365.012
426.767
462.455
465.979
439.378
391.777
338.05
287.866
242.692
203.673
172.631
146.143
122.832
103.895
87.7367
75.4112
64.583
55.2243
47.2126
40.08
33.5474
28.9198
25.1605
22.0492
19.3848
16.4134
14.6118
13.7995
13.1257
12.2462
10.8648
9.79502
9.25817
9.2111
8.91118
8.698
8.6338
8.93449
9.58748
10.6593
12.1393
12.759
12.8242
12.8379
12.8615
12.8989
12.9378
12.9763
13.0526
13.1512
13.2419
13.2678
13.2594
13.2453
13.2223
13.1941
13.179
13.2163
13.3708
13.8007
14.2384
14.2595
14.1931
14.0984
14.0057
13.864
13.7433
13.6703
13.6281
13.6006
13.5655
13.4945
13.3803
13.2031
12.9971
12.7746
48.848
-121.942
-367.975
-564.341
-699.839
-775.34
-788.297
-746.651
-673.119
-565.951
-439.947
-312.415
-188.723
-71.805
30.6319
112.41
169.458
199.534
202.644
180.441
137.599
81.0299
19.0927
-37.7567
-78.8349
-96.2378
-87.5724
-55.8859
-9.78338
38.7993
77.7878
96.6082
93.796
74.7033
49.0307
32.6438
31.0373
45.1447
74.2454
103.662
121.165
124.536
126.009
130.605
139.198
161.068
193.693
226.067
263.018
321.228
343.694
480.136
518.135
792.671
824.589
427.698
153.696
32.0641
-0.264361
-15.0619
-22.4696
-17.4047
-10.7721
-11.7757
-12.2995
-9.9512
-11.1625
-15.1732
-15.2243
-9.71528
-2.80997
1.2902
1.94256
1.63572
2.78583
4.98213
7.8179
16.3712
10.3361
5.43509
-16.8586
-96.7198
-260.579
-196.937
-106.241
-72.493
-118.402
-243.406
-413.659
-520.629
-534.893
-476.926
-379.162
-275.3
-191.205
-143.253
-134.267
-148.13
-164.426
-156.993
-117.347
-37.8705
28.6681
146.427
266.983
354.717
406.084
421.53
410.265
384.434
351.507
315.004
280.95
249.264
221.19
195.768
171.803
149.288
128.835
111.92
99.1306
85.9902
74.1285
64.4206
55.99
49.6873
44.3244
39.3107
34.4666
29.8479
26.9423
25.0765
23.4887
21.85
20.3928
18.7391
17.1698
15.8066
15.2069
14.849
14.619
14.5495
14.6178
14.7738
14.8401
14.6202
14.2796
14.0062
13.7544
13.5211
13.3215
13.163
13.0426
12.9793
12.926
12.8646
12.8061
12.7578
12.7216
12.7059
12.7344
12.8443
13.0806
13.4959
13.7874
13.7158
13.5817
13.4359
13.298
13.1648
13.0499
12.9589
12.8897
12.8293
12.7543
12.6341
12.4695
12.2626
12.049
11.82
906.004
726.422
520.81
282.386
57.8206
-168.161
-374.512
-502.779
-656.965
-691.869
-691.923
-657.112
-579.407
-452.161
-294.759
-129.095
28.5356
162.19
258.618
307.17
304.631
251.218
161.825
55.117
-46.227
-122.139
-161.113
-159.219
-121.439
-60.8051
7.15617
60.9002
87.5004
83.5414
51.0493
13.3418
-13.2428
-22.1703
2.09156
49.2377
83.1762
99.3036
113.901
123.019
128.355
157.515
199.035
272.037
333.231
410.346
464.761
562.897
733.347
540.627
312.804
119.561
31.5377
-6.41329
-13.7892
-21.3344
-17.7184
-13.7065
-9.72742
-10.7279
-11.9818
-10.4652
-11.8361
-15.4232
-14.6795
-8.66615
-2.13799
1.68639
2.96823
3.26573
3.71033
4.50443
6.51503
12.6167
8.57039
5.24595
-10.6198
-70.749
-237.258
-200.494
-99.1001
-37.9777
-47.6079
-105.228
-269.358
-447.422
-487.679
-444.16
-355.548
-258.711
-181.242
-141.825
-143.429
-174.007
-211.492
-229.835
-211.647
-151.752
-53.3998
18.4305
140.046
268.928
338.377
368.16
367.02
348.499
324.095
299.837
280.177
263.599
246.418
230.062
213.853
196.199
177.132
158.37
141.618
124.561
108.27
93.661
82.7321
73.8685
66.6836
59.2805
52.9187
46.82
42.2248
38.8899
36.3594
33.8065
30.9093
27.6618
25.2135
23.4157
22.1846
21.2446
20.4732
19.829
19.2092
18.5839
17.991
17.4615
17.0205
16.4842
15.966
15.4646
14.9703
14.5054
14.1064
13.7874
13.5279
13.3112
13.1321
12.9855
12.8662
12.7741
12.7186
12.7148
12.7605
12.8059
12.7445
12.6053
12.4549
12.3133
12.1818
12.0647
11.9677
11.8921
11.8343
11.7817
11.7053
11.5913
11.4342
11.2386
11.0358
10.8269
302.486
300.317
297.573
262.864
210.681
141.145
52.0583
-34.0563
-134.53
-231.661
-310.081
-371.523
-407.347
-406.921
-367.322
-288.001
-177.453
-47.5607
86.0536
202.76
284.806
319.105
296.866
223.827
111.118
-17.2085
-135.716
-216.778
-240.191
-205.894
-120.871
-19.6258
65.6383
113.416
98.0305
43.8392
-16.7986
-72.8576
-80.6298
-6.50341
32.8916
57.089
103.032
146.072
134.688
163.1
203.425
304.867
404.407
437.252
535.194
428.686
325.652
175.392
66.4474
9.88019
0.0765268
-16.4534
-28.6164
-15.4604
-13.4312
-12.5325
-9.31947
-10.3269
-11.9965
-10.9571
-12.1564
-15.1543
-13.8321
-7.67629
-1.45504
2.21954
3.9303
4.7394
4.92474
4.90292
6.48137
9.85549
6.89301
4.45178
-7.28303
-54.6345
-217.573
-209.007
-110.737
-28.2299
-10.5117
-25.8499
-109.318
-332.768
-426.817
-397.144
-315.067
-223.861
-151.603
-116.699
-127.635
-174.779
-234.258
-279.912
-289.4
-253.127
-172.623
-59.0734
15.6955
141.643
264.596
304.393
317.856
307.738
286.322
264.026
246.317
234.739
226.844
222.862
221.721
219.279
213.155
201.469
185.398
169.462
152.947
136.49
120.859
106.938
95.4309
84.1123
74.266
67.1501
60.3438
54.8403
51.0353
47.4713
43.6302
39.7126
36.3646
33.7773
31.6997
29.9619
28.47
27.1942
25.8883
24.3465
23.0139
21.9273
20.9393
20.0882
19.3146
18.589
17.8822
17.1859
16.5409
16.0024
15.5654
15.1977
14.8806
14.6022
14.3515
14.1177
13.8969
13.6984
13.525
13.356
13.1741
13.0083
12.8347
12.6463
12.4649
12.2998
12.1583
12.0403
11.9415
11.861
11.7764
11.6418
11.4658
11.2444
11.0137
10.763
35.0165
37.4502
40.8154
41.0028
38.4051
32.0709
23.684
13.5166
1.01518
-14.3337
-30.7344
-46.5617
-61.4107
-72.2659
-77.2053
-73.5594
-60.7921
-39.4559
-8.679
25.2458
59.5335
85.867
97.3909
95.2061
71.5417
35.8638
-8.83813
-60.6643
-93.6292
-108.596
-95.3377
-52.1878
3.29287
55.6784
69.4609
58.0293
20.7683
-36.2846
-63.8525
-50.8546
-11.3889
37.7147
85.9268
97.2009
110.232
122.259
138.255
190.105
224.629
210.491
189.418
123.949
71.0859
24.9831
-8.52212
-11.3579
-16.4001
-29.5033
-20.2463
-10.9244
-11.0162
-11.6834
-9.23765
-10.0655
-12.1738
-11.6839
-12.5318
-14.7493
-12.9469
-6.82441
-0.789304
2.92912
4.98421
5.61152
6.69687
5.82698
6.85732
8.13349
6.14655
4.19595
-4.96864
-42.7297
-197.713
-221.371
-128.55
-27.4822
2.71269
10.588
-29.4025
-147.869
-366.727
-343.293
-265.437
-177.099
-107.374
-72.4852
-83.3581
-141.331
-224.089
-299.435
-340.508
-334.693
-278.868
-180.973
-56.2964
18.3853
143.139
242.028
265.278
264.303
247.806
225.71
204.803
190.813
183.671
182.484
184.998
190.32
196.589
201.345
201.461
197.562
191.195
181.016
167.478
151.069
133.935
120.081
108.056
97.1197
87.0313
78.0672
70.8613
64.584
58.7113
54.4502
50.4133
46.5919
43.2785
40.4149
37.929
35.9404
34.5664
32.6166
30.6884
29.0052
27.5352
26.245
25.097
24.0463
23.0358
21.9941
20.9213
19.9957
19.29
18.7069
18.192
17.7239
17.2859
16.8573
16.4174
15.978
15.582
15.2326
14.9119
14.6046
14.3083
14.0276
13.7533
13.4953
13.2653
13.0657
12.8888
12.7372
12.631
12.4484
12.221
11.9823
11.7272
11.5804
1.99968
2.82061
3.95161
5.3655
6.22912
6.9282
3.05744
6.35323
2.26387
0.648842
-1.54093
-4.14977
-6.65259
-8.7269
-10.2387
-10.6297
-9.98935
-7.98907
-4.47631
0.0715564
5.36474
10.6082
14.1596
16.2751
14.5191
10.4534
4.0397
-6.24054
-13.6717
-20.1585
-21.9953
-16.2417
-5.94587
7.98801
14.5366
17.2561
12.1855
-2.71144
-15.1015
-18.0398
-12.6396
4.57788
23.0948
28.9858
31.2613
32.4439
31.5208
40.1334
50.0635
38.6964
28.7685
9.47672
2.23873
-5.92553
-21.6375
-20.2781
-22.7628
-22.2073
-15.9149
-7.66009
-8.27555
-11.2133
-10.0352
-10.4745
-12.5866
-12.3201
-12.5872
-14.0433
-12.0156
-6.07366
-0.156757
3.76558
5.50087
6.60947
9.83431
6.85439
5.91079
7.3485
6.59473
4.60824
-1.74428
-32.5394
-148.671
-256.05
-152.587
-44.5727
-1.87668
41.0159
-1.04204
-55.1337
-241.644
-278.38
-214.799
-130.145
-59.7053
-22.0295
-23.6082
-72.9657
-167.692
-273.177
-351.761
-381.318
-358.196
-284.561
-175.013
-52.1193
16.3076
130.216
203.401
219.358
213.5
195.793
174.538
153.949
141.381
135.363
134.204
136.599
141.506
149.845
161.237
170.293
175.504
178.005
177.611
174.342
167.079
156.272
146.225
135.463
124.236
112.827
101.186
91.1867
83.3265
76.5773
70.4454
64.861
59.8344
55.349
51.3579
47.9479
45.6363
43.3796
40.9882
38.5831
36.3869
34.4235
32.6762
31.1237
29.7324
28.4398
27.1842
26.0225
25.0218
24.1447
23.3509
22.6155
21.916
21.2233
20.49
19.7131
19.0164
18.4429
17.9325
17.4513
16.9914
16.5423
16.0908
15.6562
15.263
14.9114
14.5915
14.281
14.1073
13.8643
13.5653
13.2251
12.891
12.6393
-0.752006
-0.32723
0.257852
0.688875
1.05614
1.22803
1.38939
1.4579
1.24798
0.943929
0.51017
-0.436259
-0.886426
-1.33375
-1.65096
-2.56109
-2.58314
-2.34216
-1.6809
-0.813608
0.559869
2.00276
3.03887
3.51834
3.76417
3.02596
1.97861
-1.21396
-3.18522
-5.22151
-5.96267
-5.02559
-2.91355
0.213401
2.13946
3.26716
2.62076
-0.578365
-4.2859
-6.01719
-6.20769
-3.28023
1.25015
2.81017
1.47063
0.509122
-4.43967
-5.12046
0.620871
-3.59143
-8.28116
-5.93689
-10.1837
-17.2403
-27.2374
-21.8734
-15.1993
-17.4656
-12.7139
-4.19941
-6.02862
-11.5802
-11.4712
-10.9569
-12.7078
-12.7172
-12.4782
-13.2531
-11.1148
-5.33635
0.573223
4.39555
5.52706
8.02918
13.7038
8.04525
4.36707
6.01448
7.69611
5.74834
2.03273
-21.3694
-106.077
-268.737
-180.838
-67.1011
-9.45205
46.3482
16.2987
-15.417
-104.693
-234.042
-171.332
-91.8658
-22.4213
19.2695
27.6351
2.66562
-72.2624
-190.108
-301.721
-371.167
-384.52
-347.242
-272.588
-166.363
-50.6281
7.44549
101.648
161.134
165.697
155.347
137.845
121.108
107.75
99.7399
96.8677
97.6793
100.261
102.488
105.677
112.42
118.917
124.463
129.189
133.855
140.521
145.571
145.029
142.307
137.867
132.041
126.111
119.607
112.057
103.853
97.1213
90.6086
84.3975
78.6263
73.2885
68.1265
62.8886
58.8936
55.2842
51.9159
48.7851
45.8937
43.2549
40.9065
38.9082
37.2704
35.9244
34.5866
33.1521
31.7581
30.4585
29.2523
28.13
27.0788
26.0646
25.0457
24.0753
23.1987
22.3901
21.6215
20.8846
20.1698
19.4439
18.7367
18.1118
17.5521
17.0332
16.5332
16.0039
15.6015
15.2095
14.782
14.34
13.9686
-0.758613
-0.549318
-0.325603
-0.105724
0.0992006
0.279575
0.433987
0.47913
0.457201
0.374032
0.220803
-0.0128016
-0.239454
-0.448708
-0.687493
-0.894938
-0.987366
-0.948162
-0.757677
-0.443011
-0.0407505
0.409592
0.764183
0.956354
0.978054
0.491214
-0.174118
-0.584518
-1.33518
-2.70482
-2.9014
-2.6241
-1.88659
-0.846912
-0.114987
0.293409
-0.153762
-1.45349
-3.09731
-4.23958
-4.91277
-4.53818
-3.07012
-2.77967
-4.17853
-5.77789
-9.20533
-11.0197
-5.97326
-8.84612
-12.6018
-13.188
-14.2953
-21.677
-24.696
-14.5633
-9.34819
-13.6441
-10.0165
-2.3926
-5.54411
-13.2026
-13.2159
-11.1699
-12.4568
-12.8611
-12.2477
-12.4214
-10.2036
-4.52884
1.25006
4.46835
5.86942
9.72905
17.9111
9.39656
2.61985
3.43535
7.84808
8.3578
3.88752
-10.9864
-73.502
-255.023
-203.876
-91.2092
-19.6611
24.1045
42.737
-7.66318
-46.4585
-156.81
-129.792
-63.867
-0.499603
42.262
56.4463
51.4549
14.7618
-70.8458
-199.614
-294.8
-348.44
-353.793
-314.084
-239.796
-145.847
-45.7813
-0.593085
69.7266
114.652
110.928
98.1633
81.2763
65.5997
54.0326
47.4428
45.434
47.2825
52.7144
60.4862
67.8075
74.9255
81.2893
86.441
89.543
89.8764
91.5101
94.8214
97.4474
99.182
100.173
100.353
100.696
101.617
102.694
102.008
99.0675
95.5579
91.8268
87.8374
83.5152
79.6259
76.1919
72.7639
69.3321
65.9222
62.5502
59.2166
55.9123
52.9343
50.5252
48.2371
45.9945
43.8084
41.7103
39.7206
37.8573
36.1417
34.6088
33.3086
32.1915
31.0083
29.7091
28.4182
27.1817
26.0165
24.9449
23.9388
22.965
22.0423
21.18
20.3659
19.5818
18.8559
18.2095
17.5568
16.8703
16.1612
15.5377
-0.507765
-0.416112
-0.320167
-0.224917
-0.136399
-0.0636471
-0.00941395
0.0120662
0.0121072
-0.0155643
-0.0710583
-0.148722
-0.236226
-0.329447
-0.480175
-0.576086
-0.606247
-0.565923
-0.456457
-0.292009
-0.0925731
0.10678
0.243359
0.284307
0.181102
-0.225304
-0.451153
-0.802801
-1.44295
-1.94446
-2.03464
-1.92185
-1.6063
-1.16041
-0.816327
-0.710817
-1.09974
-1.94806
-2.97844
-3.89328
-4.62157
-4.80325
-4.02172
-4.24384
-4.92532
-5.65746
-10.578
-12.0988
-9.04901
-14.07
-19.1761
-16.1479
-12.0349
-18.331
-20.8
-7.83951
-3.60137
-10.6355
-8.98669
-2.63132
-6.39021
-14.825
-14.4152
-10.7725
-11.7623
-12.8266
-12.0182
-11.6161
-9.32206
-3.75785
1.74541
4.23366
6.15876
12.0083
21.7769
10.7196
1.28399
0.391747
4.36394
11.6677
5.24289
-5.23873
-52.1844
-227.131
-214.137
-110.336
-30.2883
1.5505
49.4004
1.21892
-23.1923
-95.8201
-92.7561
-42.2138
9.90992
40.1752
86.8493
67.1557
50.2938
9.55476
-70.9892
-185.596
-259.251
-302.233
-301.678
-262.289
-189.154
-100.657
-23.738
6.27399
54.5343
74.452
66.4892
49.4472
31.1266
15.8542
4.8456
-1.51624
-3.61703
-3.06706
-0.508761
4.57609
10.8423
17.5108
24.3997
31.9463
39.988
46.6212
51.8662
56.5748
60.4471
63.3333
65.188
66.3314
66.6224
65.7137
63.8194
64.0687
64.597
64.9493
65.1312
65.1112
64.5306
63.6638
62.7858
61.837
60.8296
59.8129
58.8275
57.9
56.7346
55.1125
53.4446
51.7737
50.1156
48.4666
46.8266
45.2055
43.6188
42.0844
40.5941
39.0998
37.5533
35.9621
34.3719
32.8326
31.361
30.015
28.8536
27.7456
26.5627
25.4053
24.2991
23.1359
21.9903
20.9528
19.8724
18.8013
17.7198
16.7556
-0.25994
-0.225623
-0.204502
-0.192193
-0.191727
-0.207065
-0.235594
-0.255116
-0.272913
-0.310215
-0.376239
-0.432292
-0.492841
-0.54156
-0.579821
-0.585755
-0.559866
-0.504741
-0.414286
-0.302207
-0.184132
-0.0784022
-0.0140641
-0.00425105
-0.121891
-0.300033
-0.521872
-0.909265
-1.31597
-1.64602
-1.79718
-1.79408
-1.62643
-1.37909
-1.19019
-1.22817
-1.55395
-2.26094
-3.46951
-4.35909
-5.13968
-5.46539
-4.95574
-5.62231
-5.88304
-6.86962
-11.3843
-12.488
-11.4145
-14.8291
-15.6867
-11.2621
-10.0652
-13.3742
-13.299
-3.71505
-2.474
-11.5084
-9.79946
-4.49191
-7.48809
-15.4524
-14.6765
-9.84709
-10.709
-12.6857
-11.8247
-10.8341
-8.47938
-3.10456
1.97486
3.57493
6.72767
15.0436
24.2013
11.5018
0.393605
-1.37322
0.989489
10.514
5.54086
-3.23604
-42.2714
-201.873
-211.442
-121.45
-38.8281
-12.3024
42.2026
11.5644
-17.2409
-46.0017
-68.7111
-26.5536
6.09268
43.136
93.9038
78.8727
54.3749
37.621
0.923665
-70.6936
-152.306
-209.081
-240.776
-235.359
-192.168
-126.035
-53.711
-2.82065
18.8809
62.8675
67.1993
51.6153
27.3832
6.73845
-9.85832
-22.9758
-31.3805
-34.3487
-41.3777
-40.8154
-37.5524
-33.3307
-29.2224
-25.828
-17.7161
-12.7629
-8.42417
-3.49559
1.28499
5.81406
10.259
14.2965
18.3706
22.437
26.3213
29.0707
31.1551
32.9617
34.5483
35.9249
36.9894
37.8673
38.6783
39.3308
39.666
39.7184
39.6175
39.3767
39.0069
38.5442
38.0116
37.4474
36.8821
36.2923
35.6554
34.9742
34.2637
33.5321
32.774
31.9856
31.1645
30.3115
29.4384
28.5665
27.6979
26.8515
26.0244
25.1815
24.3254
23.4398
22.5977
21.8754
21.1155
20.5
19.6628
18.8251
17.9517
17.0242
-0.0915838
-0.0941078
-0.105417
-0.127226
-0.161157
-0.208078
-0.267443
-0.337539
-0.416036
-0.501726
-0.589064
-0.670438
-0.738077
-0.775951
-0.746622
-0.702922
-0.62881
-0.570887
-0.472747
-0.347008
-0.251344
-0.183171
-0.176661
-0.205159
-0.304798
-0.52702
-0.787055
-1.10333
-1.41843
-1.67741
-1.89894
-1.92813
-1.80568
-1.6459
-1.57884
-1.74808
-2.19117
-2.93268
-3.95429
-4.73962
-5.5313
-5.8385
-5.51123
-6.20484
-6.18473
-6.97899
-11.051
-11.6049
-9.55513
-12.1388
-13.0321
-9.03161
-5.86905
-10.2758
-10.7724
-2.71912
-4.1482
-11.5254
-9.7347
-5.78982
-8.12047
-15.2048
-14.4294
-8.77323
-9.45012
-12.423
-11.6651
-10.0931
-7.75547
-2.69774
1.65334
3.14679
7.18176
19.7712
23.3513
11.3279
-0.119971
-2.5354
-0.981056
5.83067
3.94616
-5.12981
-43.9841
-191.412
-203.244
-123.708
-44.9354
-15.5994
33.3108
22.2024
-9.5674
-23.8779
-41.2481
-14.5901
3.02832
53.1158
85.4533
76.0809
60.5159
39.2158
25.2406
-5.00729
-64.7139
-116.397
-154.559
-171.879
-161.71
-124.921
-70.6104
-16.3924
10.885
31.2523
58.6246
52.2951
44.2696
31.0699
15.473
0.682616
-12.0448
-20.1663
-28.8602
-40.5629
-41.2623
-41.7195
-41.2391
-39.8282
-37.8235
-35.6955
-33.3328
-31.0737
-29.2003
-27.7067
-23.706
-20.562
-18.116
-15.1998
-12.4522
-9.9702
-7.70131
-5.60457
-3.66011
-1.86338
-0.17481
1.48445
3.17089
4.84511
6.32753
7.57557
8.71683
9.77143
10.7535
11.6635
12.5035
13.3151
14.1451
14.9424
15.6385
16.2333
16.7479
17.1959
17.5806
17.9138
18.2046
18.4578
18.6671
18.8293
18.963
19.074
19.1886
19.4058
19.4553
19.4088
19.3542
19.1672
18.9382
18.6711
18.2884
17.8201
17.2365
16.5972
-0.0417718
-0.0519812
-0.0707335
-0.0990052
-0.137535
-0.186605
-0.245988
-0.315105
-0.392352
-0.475117
-0.559448
-0.639718
-0.708022
-0.754708
-0.770574
-0.754069
-0.704604
-0.626828
-0.522994
-0.413437
-0.321335
-0.271718
-0.289438
-0.382348
-0.559001
-0.818893
-1.12705
-1.45296
-1.75112
-1.98014
-2.10511
-2.09757
-1.98536
-1.85452
-1.818
-1.99132
-2.41273
-3.09261
-3.97697
-4.70061
-5.4748
-5.75958
-5.63378
-6.3763
-6.07246
-7.16971
-9.91439
-9.01383
-7.33726
-10.1979
-10.3392
-5.61141
-4.65241
-9.53821
-9.14225
-3.1495
-5.18168
-10.9341
-10.5235
-7.69576
-8.07935
-14.2522
-13.8072
-7.80368
-8.09715
-11.9813
-11.5032
-9.38
-7.23413
-2.75741
0.844719
2.56548
7.70321
22.7559
21.8307
10.2539
-0.602192
-2.58381
-3.50556
-0.558459
-0.742312
-11.5795
-48.7133
-189.526
-197.375
-122.064
-46.9399
-15.4135
19.8265
40.1708
5.23928
-14.4431
-19.0251
-7.98568
10.6578
61.2084
72.7896
70.0514
60.2203
44.4682
27.2735
15.7316
-9.68147
-54.174
-85.018
-106.683
-112.812
-99.1918
-68.5026
-30.7779
0.89731
11.9415
28.3845
41.3056
39.3007
31.1989
20.8764
11.7187
4.59689
-0.751606
-4.17252
-6.06173
-11.107
-13.7314
-14.9732
-15.5808
-15.9092
-15.9844
-15.7684
-15.3184
-14.6657
-13.5304
-12.3915
-11.9282
-10.9706
-9.31725
-7.85321
-6.43783
-5.06546
-3.71682
-2.39652
-1.14031
-0.00894995
0.915893
1.56663
2.05176
2.73259
3.68689
4.66793
5.63958
6.59602
7.45565
8.29061
9.11714
9.91209
10.6762
11.4038
12.1003
12.7654
13.3855
13.9523
14.4713
14.9494
15.3895
15.7814
16.114
16.3929
16.625
16.7974
16.649
16.6222
16.6845
16.7575
16.9078
16.976
16.9201
16.8251
16.6858
16.3555
16.0737
-0.0892385
-0.0974819
-0.112448
-0.134708
-0.164613
-0.202198
-0.247134
-0.298721
-0.355795
-0.416556
-0.478403
-0.537787
-0.590205
-0.630742
-0.65519
-0.660267
-0.644144
-0.607166
-0.553525
-0.493099
-0.440945
-0.416067
-0.438006
-0.521497
-0.674123
-0.89159
-1.1552
-1.43622
-1.69974
-1.90949
-2.03339
-2.06068
-2.01376
-1.95554
-1.96963
-2.14341
-2.49641
-3.04713
-3.74576
-4.28304
-4.85668
-5.07213
-5.11299
-5.71343
-5.49671
-6.62241
-8.35644
-6.75897
-5.80941
-8.52766
-7.88572
-4.06742
-4.78029
-9.07497
-7.72166
-3.87875
-5.85434
-10.3711
-11.1301
-8.2681
-7.33826
-12.6556
-13.0264
-7.16524
-6.6784
-11.1622
-11.3082
-8.67552
-7.06552
-3.57754
-0.433625
1.68523
8.23719
23.6014
19.3847
7.60828
-0.914882
-4.65774
-10.4395
-5.96357
-5.23575
-17.6601
-62.5302
-192.238
-182.496
-111.766
-42.4878
-11.4215
22.242
55.0999
20.6616
-1.5888
-6.58997
2.48885
27.1288
56.1482
65.3418
64.7205
56.413
45.1067
31.8987
20.1107
10.8486
-11.4169
-42.8686
-59.7885
-70.2225
-70.0626
-57.7391
-36.3133
-12.5403
5.5322
12.4069
24.0265
25.7355
22.9556
19.1812
15.5805
12.4442
9.93055
8.16687
5.57092
3.33404
1.59432
-0.722413
-1.26574
-1.86137
-2.3164
-2.5829
-2.70093
-2.65864
-2.5016
-2.35249
-2.21522
-1.98929
-1.30052
-0.386212
0.294948
0.95205
1.58009
2.18607
2.77502
3.35257
3.93347
4.54631
5.20389
5.88652
6.5602
7.20525
7.82068
8.40266
9.01814
9.59032
10.1016
10.6461
11.0874
11.4919
11.9016
12.3177
12.7272
13.1247
13.5146
13.9002
14.2803
14.6414
14.9657
15.245
15.4866
15.6443
15.6267
15.6605
15.7323
15.8522
15.9776
16.1118
16.2268
16.2785
16.3549
16.2292
16.3891
-0.187988
-0.195745
-0.206768
-0.221305
-0.239491
-0.261315
-0.286589
-0.314913
-0.34564
-0.377829
-0.410194
-0.441072
-0.468263
-0.490589
-0.506634
-0.515532
-0.517196
-0.512722
-0.504961
-0.498925
-0.501738
-0.521967
-0.568177
-0.646948
-0.760942
-0.907185
-1.07642
-1.25391
-1.42152
-1.56051
-1.6561
-1.7066
-1.731
-1.76927
-1.86751
-2.07051
-2.37987
-2.79025
-3.26156
-3.6318
-4.03053
-4.21322
-4.34863
-4.80822
-4.99519
-5.85503
-6.85211
-4.9892
-5.14889
-7.42046
-6.00142
-3.67718
-5.41256
-8.32365
-6.78863
-4.62832
-6.38882
-9.34417
-10.7029
-8.445
-6.68677
-10.7469
-11.887
-6.60834
-4.97161
-9.46321
-11.043
-8.19144
-7.38418
-5.75062
-2.14606
0.265196
8.08242
21.3157
13.251
2.78382
-1.90304
-10.2178
-18.0133
-10.199
-18.5776
-43.1978
-122.837
-172.332
-147.743
-82.595
-22.3421
0.0392352
57.0267
67.2846
35.7792
12.1425
5.69958
14.8542
35.4931
52.3997
60.5022
60.1305
53.6234
43.5545
32.469
23.4726
16.1592
7.882
-10.4433
-30.9517
-43.1139
-48.8564
-46.1351
-35.4674
-20.157
-5.04195
6.98863
11.7119
17.1801
19.8305
21.1177
21.0028
19.727
17.9177
15.8847
13.8425
12.1785
10.7004
9.58333
8.7885
8.14892
7.63608
7.24531
6.9769
6.82786
6.76862
6.67842
6.60749
6.70963
7.03172
7.39075
7.71086
7.97979
8.2175
8.438
8.65971
8.90091
9.17942
9.51061
9.87817
10.2622
10.6286
10.9735
11.3005
11.6107
11.9097
12.2043
12.4855
12.5644
12.6614
12.7932
12.9781
13.2006
13.4451
13.7073
13.9923
14.3022
14.6335
14.9705
15.2941
15.5916
15.8572
16.11
16.3293
16.5438
16.7578
17.0071
17.2644
17.4821
17.7442
17.9249
18.1171
18.361
18.8323
-0.22498
-0.235956
-0.247772
-0.26039
-0.273716
-0.287619
-0.301928
-0.316423
-0.330838
-0.344874
-0.358229
-0.370688
-0.382496
-0.392817
-0.401776
-0.409927
-0.418327
-0.428623
-0.443118
-0.464724
-0.49672
-0.542279
-0.603797
-0.68214
-0.776005
-0.88161
-0.99286
-1.10203
-1.20099
-1.28323
-1.34687
-1.39849
-1.45488
-1.54089
-1.68064
-1.89243
-2.17209
-2.49939
-2.86058
-3.13476
-3.45741
-3.63501
-3.76892
-4.37931
-4.22736
-4.97639
-5.20821
-4.26338
-4.70546
-6.3257
-5.02855
-3.67116
-5.8367
-7.33353
-6.00304
-5.30293
-6.5681
-8.99077
-10.3101
-7.77801
-6.03513
-8.34368
-9.92352
-5.78113
-3.17
-6.44512
-10.8211
-8.67347
-7.81423
-9.37923
-4.63401
0.349214
6.1176
13.054
7.10486
0.296939
-4.96543
-17.2225
-41.8444
-45.857
-66.2252
-109.284
-135.944
-129.375
-87.4567
-26.3788
2.71529
44.1244
110.276
83.1628
48.0282
22.687
15.0952
24.672
38.4977
49.541
54.3184
53.3227
48.852
42.5315
35.0129
26.1732
18.1839
14.1572
5.97662
-10.7695
-25.3256
-34.838
-37.4415
-32.579
-22.2693
-9.51197
2.27993
11.3096
16.4298
19.1288
25.3394
27.6136
27.0093
25.418
23.6181
21.9472
20.4967
19.2715
18.2767
17.467
16.7895
16.207
15.7132
15.3185
15.0268
14.7824
14.52
14.3222
14.3045
14.4044
14.5131
14.5833
14.6033
14.6007
14.5866
14.574
14.5846
14.6265
14.7048
14.8197
14.9623
15.124
15.2986
15.4829
15.6732
15.8691
16.0699
16.2596
16.4946
16.6942
16.8824
17.0812
17.2752
17.4761
17.6962
17.9509
18.2462
18.5809
18.9401
19.307
19.6662
20.0082
20.3472
20.6817
21.032
21.3897
21.7599
22.2348
22.4347
22.8659
23.1177
23.4725
23.7388
24.8217
-0.180762
-0.19153
-0.202636
-0.213989
-0.225466
-0.236937
-0.24827
-0.259335
-0.270016
-0.280228
-0.289942
-0.299189
-0.308019
-0.316983
-0.32665
-0.337804
-0.35145
-0.368809
-0.391257
-0.420214
-0.456955
-0.502371
-0.556711
-0.61935
-0.688668
-0.762088
-0.836353
-0.90808
-0.974645
-1.03542
-1.09316
-1.15497
-1.23183
-1.33611
-1.47825
-1.66162
-1.88137
-2.12524
-2.36766
-2.59916
-2.81008
-2.99992
-3.23824
-3.54688
-3.90432
-4.38136
-4.34665
-3.98537
-4.45719
-5.75014
-4.35492
-3.96261
-6.33329
-6.2216
-6.20855
-5.51226
-6.93115
-9.20965
-8.12493
-6.33791
-5.30073
-5.38668
-6.53133
-3.79588
-1.4969
-3.28014
-7.47336
-8.05677
-5.35288
-6.63243
-4.46047
2.15533
6.53146
8.1541
2.50725
-6.71063
-31.2957
-84.1819
-129.624
-162.772
-128.176
-106.518
-77.1868
-25.2332
4.28339
22.1563
76.8364
135.018
117.003
82.4895
48.6244
31.8659
26.5585
29.1425
35.0232
39.8952
42.2423
42.0804
40.7186
39.2897
37.9719
35.3876
29.7219
21.5641
17.0149
8.18587
-12.05
-26.4532
-31.5112
-28.9655
-20.3438
-8.81254
3.08958
13.1363
21.0262
26.4108
30.1115
38.4074
38.255
36.7984
35.1959
33.6498
32.2363
30.975
29.8653
28.8986
28.0496
27.28
26.5701
25.9479
25.4478
25.0173
24.5666
24.189
24.1435
24.2469
24.2116
24.0874
23.9123
23.7412
23.5917
23.442
23.3446
23.2871
23.2681
23.2867
23.3397
23.4212
23.5278
23.6573
23.8064
23.9731
24.1561
24.3489
24.5537
24.7665
24.9782
25.2155
25.3822
25.5755
25.8022
26.0705
26.3797
26.7314
27.1136
27.5167
27.9272
28.324
28.7226
29.0939
29.4731
29.8444
30.2565
30.6113
30.9434
31.2894
31.5078
31.677
31.8564
32.7265
-0.107043
-0.112963
-0.1192
-0.125762
-0.132651
-0.139872
-0.147438
-0.155374
-0.163719
-0.172536
-0.181916
-0.191994
-0.202959
-0.215061
-0.228622
-0.244037
-0.261761
-0.28229
-0.306123
-0.333703
-0.365358
-0.401235
-0.441245
-0.485013
-0.53188
-0.581022
-0.631727
-0.683713
-0.737422
-0.794307
-0.857085
-0.929718
-1.01686
-1.12291
-1.2507
-1.40018
-1.56864
-1.74803
-1.93542
-2.11462
-2.31243
-2.49972
-2.72945
-3.07826
-3.22966
-3.94805
-4.16966
-3.99191
-4.56073
-5.11867
-4.46039
-4.42978
-6.30651
-6.05003
-5.82294
-6.22263
-6.89005
-6.69117
-5.7018
-3.93174
-3.17711
-2.34556
-0.43101
-0.673212
-2.67394
-8.51964
-8.82133
-4.77721
-3.06281
-3.79493
-1.46356
3.3175
3.19493
-5.28161
-25.834
-74.9816
-174.857
-303.574
-270.724
-129.375
-7.89515
17.0689
30.8146
44.3902
72.3716
108.371
127.207
118.938
92.2711
64.9692
43.2395
29.2
22.0205
18.0024
17.1082
14.9709
17.4265
22.4271
24.8413
27.0354
31.5603
40.4374
39.8403
33.4384
26.1555
22.4821
12.2424
-15.0815
-24.8665
-22.5015
-12.8992
1.02762
15.9019
28.7562
36.0091
38.0321
43.4687
53.3285
52.9232
51.9726
50.897
49.6701
48.3457
46.9909
45.6729
44.4457
43.319
42.2533
41.2221
40.2796
39.5043
38.8741
38.2548
37.5149
37.1837
37.2571
37.0126
36.6581
36.3024
35.9961
35.7414
35.5338
35.3748
35.2608
35.1889
35.1539
35.149
35.1682
35.2071
35.2606
35.3221
35.388
35.4619
35.5474
35.6513
35.7789
35.9092
36.0645
36.1022
36.2074
36.3483
36.5032
36.6571
36.8226
37.0039
37.2039
37.4256
37.6225
37.8547
38.0223
38.2187
38.3194
38.4837
38.3761
38.3781
38.1301
37.9737
37.537
37.2484
36.3422
-0.0088766
-0.0107526
-0.0128585
-0.0152294
-0.0178996
-0.0209111
-0.0243161
-0.028179
-0.0325761
-0.0375957
-0.0433526
-0.0500076
-0.0577632
-0.0668433
-0.0774796
-0.0899057
-0.104343
-0.120987
-0.139998
-0.161496
-0.185576
-0.212313
-0.241714
-0.273639
-0.307957
-0.345214
-0.386277
-0.432293
-0.484767
-0.544096
-0.611125
-0.686926
-0.772549
-0.869565
-0.97998
-1.10511
-1.24431
-1.39482
-1.5541
-1.71924
-1.8963
-2.09142
-2.31595
-2.58256
-2.86784
-3.21543
-3.5606
-3.9038
-4.26926
-4.63178
-5.06048
-4.97827
-5.8649
-6.19114
-4.55981
-5.36166
-6.34659
-4.76204
-1.39967
-1.66275
-6.92547
-4.10763
1.57661
1.16391
-6.85231
-12.6867
-4.67247
7.76691
13.3973
17.097
22.5972
20.7907
-2.35306
-60.8283
-154.203
-448.159
-395.255
-137.758
19.6999
52.6742
98.3518
96.5548
87.8408
82.1343
80.4221
83.2324
82.6904
69.3241
47.1657
26.0165
16.9725
3.94478
-15.115
-23.9343
-36.6682
-43.6446
-37.5184
-20.6048
0.568735
18.2642
27.3925
35.5997
62.6462
59.4374
46.3864
35.3103
30.3309
15.8706
-10.5761
-4.33913
6.65835
19.6767
32.5618
43.349
49.2471
53.3617
66.9036
74.3865
73.0734
72.1376
70.8495
69.2682
67.517
65.7172
63.9839
62.4086
61.0112
59.7159
58.4406
57.239
56.2467
55.4583
54.6233
53.4824
52.0861
50.845
49.9099
49.1856
48.6111
48.1455
47.7524
47.4063
47.0952
46.8139
46.5585
46.323
46.1008
45.8894
45.6886
45.4969
45.3065
45.1682
45.0339
44.8999
44.7576
44.634
44.5021
44.2767
44.1427
43.9854
43.7846
43.5076
43.1497
42.7573
42.3657
41.9913
41.6721
41.2913
41.0237
40.6055
40.2696
39.7286
39.2986
38.4085
37.7168
36.5329
35.6112
33.9356
33.011
30.8882
0.0799413
0.0814443
0.0830495
0.084724
0.0864087
0.0880314
0.0895038
0.0907173
0.091539
0.0917733
0.0910336
0.088839
0.0858109
0.0818611
0.0769557
0.0710645
0.064146
0.0561355
0.0469278
0.0363555
0.0241771
0.0100838
-0.00629646
-0.0255744
-0.0492483
-0.0778707
-0.130181
-0.159908
-0.22695
-0.286809
-0.349752
-0.416324
-0.487296
-0.566683
-0.66446
-0.774779
-0.902899
-1.04725
-1.19838
-1.35353
-1.51963
-1.69606
-1.92092
-2.16628
-2.40628
-2.82517
-2.96924
-3.29858
-3.95059
-4.15215
-4.01031
-4.42726
-5.79795
-5.28466
-2.17691
-5.68662
-7.89516
-4.61742
-1.17713
-6.17731
-16.5956
-6.88739
0.908742
-10.8508
-32.8236
-23.5407
25.5794
80.9864
111.516
127.926
122.774
79.8501
-12.3593
-373.441
-338.805
-76.6643
52.8251
81.3657
137.736
140.198
95.2906
54.5515
44.3208
27.8345
25.2957
29.1984
25.2777
11.715
-8.20375
-28.0811
-46.7385
-60.9072
-65.273
-57.2024
-36.0115
-9.75723
13.962
31.3203
49.1802
88.0589
89.6214
88.0638
81.3205
68.4741
54.379
45.521
38.8605
17.6056
13.4638
17.4883
24.1086
31.8373
39.7002
46.9412
52.986
56.9674
60.7489
66.0261
65.2266
64.5085
63.5197
62.2817
60.8821
59.4044
57.9316
56.5066
55.1628
53.9793
52.9544
52.189
51.5501
50.8064
49.336
48.2641
47.8978
47.2038
46.5416
45.9338
45.3556
44.7885
44.2205
43.6434
43.0608
42.4814
41.9107
41.3499
40.7979
40.2555
39.7236
39.2007
38.688
38.1099
37.4695
36.8546
36.2744
35.731
35.1941
34.6593
34.1568
33.7188
33.3074
32.8889
32.4587
32.0374
31.6243
31.2127
30.8983
30.3505
30.053
29.5882
29.0753
28.4539
27.9589
27.0863
26.4627
25.364
24.5602
23.3258
22.6534
20.7379
0.110958
0.113841
0.116959
0.12025
0.123629
0.126994
0.130229
0.133209
0.135789
0.137737
0.138788
0.139922
0.14097
0.141377
0.141134
0.14032
0.138971
0.137032
0.134326
0.130538
0.125227
0.117872
0.107895
0.0946259
0.0772928
0.0529168
0.0296429
0.00521742
-0.0235403
-0.0562267
-0.0926725
-0.133172
-0.179194
-0.236591
-0.374443
-0.448267
-0.561521
-0.751477
-0.888871
-1.02696
-1.16993
-1.33453
-1.54051
-1.80796
-1.95176
-2.49988
-2.42073
-2.69068
-3.74668
-2.88495
-4.28312
-3.40622
-4.93137
-6.27642
-1.92744
-8.33178
-9.92199
-6.76008
-9.76199
-24.3538
-48.3237
-30.4666
-39.9646
-71.4551
-78.1405
-7.69022
139.672
288.07
370.589
364.418
330.746
229.326
-114.392
-12.1397
86.8907
105.506
191.948
157.37
84.9449
55.8336
8.31144
-33.6168
-21.8997
-7.01926
2.73772
0.968742
-6.91406
-15.837
-25.1625
-30.7805
-29.4444
-20.0532
-2.77555
19.0962
34.681
70.9337
91.9182
100.637
107.76
107.555
100.401
89.6559
76.7463
63.7587
54.8214
48.4515
32.0553
27.8642
29.2301
33.239
38.3908
43.5869
49.0763
54.173
56.4961
58.2189
60.6798
59.7647
58.3609
56.6911
54.8742
53.0278
51.2364
49.5675
48.1293
47.1376
45.9175
44.0411
43.4593
42.6899
41.9212
41.1714
40.4551
39.7856
39.1112
38.465
37.8697
37.2978
36.7214
36.1353
35.5287
34.9035
34.2633
33.6158
32.9723
32.3388
31.716
31.1051
30.5057
29.9159
29.3336
28.7526
28.3307
27.8939
27.458
26.8935
26.4489
26.042
25.5695
25.1321
24.6947
24.2449
23.7895
23.3398
22.89
22.4496
21.9978
21.5032
21.0463
20.4986
19.9888
19.3943
18.8211
18.1442
17.5494
16.8606
16.2447
15.6155
15.2571
14.0857
0.126926
0.130386
0.134154
0.138114
0.142127
0.146029
0.14965
0.152832
0.155456
0.15752
0.15937
0.161649
0.163381
0.164908
0.166634
0.169008
0.172417
0.177033
0.182658
0.188601
0.193629
0.196045
0.193919
0.185606
0.170694
0.151817
0.140958
0.122143
0.0961112
0.0659704
0.0327837
-0.00438942
-0.0456967
-0.101255
-0.15149
-0.209583
-0.286283
-0.376813
-0.52401
-0.593108
-0.724608
-0.936454
-1.1262
-1.44362
-1.40968
-2.1421
-1.87446
-1.9765
-3.58391
-2.20992
-5.20185
-3.96504
-4.24634
-10.0848
-3.7414
-14.3192
-27.1537
-21.6475
-51.3914
-80.4223
-151.776
-126.766
-163.67
-180.343
-52.6694
90.8336
436.177
532.076
659.511
673.56
470.082
349.184
261.958
237.718
274.732
230.938
119.597
63.2426
-5.98961
-100.533
-82.0698
-69.4139
-55.1268
-40.2139
-26.7338
-15.7545
-6.65513
0.745724
9.38808
19.046
30.0829
56.0583
71.3817
87.0796
100.971
111.024
114.253
112.866
107.082
97.7633
86.3803
74.3401
63.067
55.1335
49.6439
37.1004
34.298
34.8636
37.1329
41.0144
45.8187
49.3488
50.984
55.1111
56.0375
55.4672
54.0841
52.0627
49.7861
47.4408
45.1612
43.0426
41.1358
39.4618
38.0125
36.7389
35.648
34.8191
33.9292
32.8823
32.3508
31.7729
31.126
30.458
29.8052
29.2002
28.6424
28.1021
27.6093
27.0132
26.3974
25.8761
25.2942
24.709
24.129
23.5583
22.9964
22.4447
21.9043
21.3737
20.8496
20.333
19.7889
19.2675
18.7636
18.265
17.7664
17.2889
16.839
16.4127
15.9768
15.5361
15.0996
14.6757
14.2684
13.884
13.4847
13.0904
12.6962
12.2803
11.869
11.4459
11.0031
10.6169
10.2086
9.89836
9.50931
9.36886
9.19564
8.72888
0.149321
0.153491
0.157757
0.161823
0.165338
0.16792
0.169192
0.16884
0.166691
0.162808
0.15758
0.151776
0.146489
0.143157
0.14341
0.148809
0.160483
0.178709
0.202544
0.2296
0.256146
0.277527
0.288359
0.28408
0.262458
0.224919
0.177181
0.126667
0.0822666
0.0504691
0.032129
0.0202344
0.00210861
-0.043443
-0.042568
-0.0696273
-0.125472
-0.206117
-0.33291
-0.435866
-0.591138
-0.683467
-0.829913
-1.10121
-0.799866
-2.13788
-1.45562
-1.71624
-4.71953
-1.63557
-8.08136
-10.0442
-9.09647
-27.06
-10.9412
-59.2653
-81.9796
-81.3776
-230.057
-243.284
-314.996
-268.821
-211.958
-182.98
229.495
368.194
537.927
709.986
664.885
593.341
468.739
391.795
389.211
362.194
250.516
116.882
55.1217
-18.7105
-113.315
-101.596
-91.051
-80.3998
-68.5021
-54.2429
-36.5443
-15.413
3.83089
20.4891
31.5823
55.2715
72.2825
83.2495
92.5104
99.4109
103.814
103.821
99.627
92.5104
83.9625
74.3341
64.4916
55.3333
47.8362
43.1797
38.2923
32.2859
33.687
35.8853
38.2166
39.8041
43.9642
46.3284
47.1806
47.5857
46.7014
44.7902
42.3346
39.6629
36.9821
34.4289
32.0962
30.0339
28.2556
26.7512
25.4892
24.429
23.5373
22.7757
22.1252
21.5818
21.0946
20.6038
20.0977
19.5932
19.1212
18.6962
18.3088
17.9367
17.5659
17.1904
16.8038
16.4139
16.0225
15.6314
15.2522
14.8861
14.5296
14.185
13.8566
13.5427
13.237
12.9395
12.6506
12.3692
12.0959
11.8296
11.5669
11.3195
11.0905
10.8713
10.64
10.4096
10.1881
9.98289
9.8002
9.63689
9.46316
9.30017
9.13254
8.96064
8.78715
8.62581
8.44367
8.37212
8.21103
8.23675
8.09032
8.30767
8.25629
8.42722
0.217128
0.217995
0.217031
0.21353
0.206707
0.195765
0.180038
0.15918
0.133442
0.103879
0.0726338
0.0430916
0.0196943
0.00743285
0.0111192
0.0344916
0.0789505
0.142409
0.219002
0.299334
0.372163
0.428527
0.451984
0.434585
0.376794
0.286179
0.181304
0.0897129
0.0351301
0.0278811
0.0635263
0.109761
0.137478
0.051579
-0.0246744
-0.100518
-0.126174
-0.0776433
-0.225127
-0.309075
-0.564874
-1.031
-1.44666
-1.75457
-0.0627099
-4.80936
-1.86083
-3.42918
-12.6759
-3.55585
-34.9957
-27.0422
-32.818
-99.4626
-75.0313
-185.079
-251.595
-280.002
-492.782
-344.928
-195.112
-227.841
208.887
332.529
521.615
600.574
675.199
686.694
612.275
506.99
444.742
418.716
370.788
258.478
126.279
48.8664
-6.08235
-102.081
-88.9873
-80.4139
-76.9949
-73.719
-67.4097
-56.3607
-40.6884
-22.5029
-2.18636
18.2935
34.2061
54.6509
71.5591
78.6171
84.6436
87.5134
86.5255
82.9153
77.5516
70.8762
63.117
55.2605
47.961
41.8504
37.3898
34.0949
31.46
31.2309
32.9824
35.41
37.5791
39.8175
41.701
42.1811
41.653
40.0994
37.7575
35.2331
32.5165
29.818
27.2811
24.988
22.9847
21.2831
19.8702
18.7204
17.8019
17.0613
16.4698
15.9995
15.6224
15.3057
15.0143
14.7251
14.4356
14.1625
13.923
13.7187
13.538
13.365
13.1906
13.0121
12.829
12.6448
12.5165
12.4199
12.3175
12.2128
12.1043
11.9981
11.9004
11.8109
11.7241
11.638
11.553
11.4703
11.3937
11.3214
11.2512
11.1912
11.138
11.0831
11.0172
10.9537
10.8953
10.8485
10.8157
10.7889
10.7483
10.7117
10.6672
10.6194
10.569
10.5318
10.4801
10.5339
10.4705
10.5991
10.5553
10.7854
10.7673
10.9302
0.529926
0.514511
0.486802
0.443604
0.383466
0.305444
0.2095
0.0968926
-0.0272272
-0.156137
-0.279785
-0.382165
-0.445993
-0.456056
-0.402779
-0.281303
-0.0974552
0.124454
0.354254
0.558675
0.703351
0.816652
0.783934
0.653559
0.463004
0.239408
0.0328749
-0.0891408
-0.0666306
0.0585058
0.277818
0.297854
0.0510844
-0.378479
-0.46788
-0.462445
-0.279521
0.501615
0.200872
0.445086
-3.00628
-3.38454
-6.46274
-3.78951
3.22447
-19.5852
-8.43246
-25.923
-40.4554
-35.83
-105.465
-115.254
-139.774
-233.281
-251.506
-349.448
-460.906
-366.62
-304.628
20.7073
318.928
422.95
655.191
656.074
699.316
755.031
701.529
576.202
459.869
392.456
369.385
337.785
253.827
140.025
50.3781
15.3783
-59.4671
-66.2788
-63.5765
-63.4717
-64.075
-63.6459
-59.3738
-50.4622
-37.4135
-21.6475
-4.25186
13.1535
28.9474
41.9863
56.3203
60.8769
63.9917
64.3901
62.5296
59.1081
54.6185
49.4782
44.2243
39.3617
35.2929
32.3285
30.5601
29.7253
30.1279
31.6981
33.9386
36.0671
37.8225
39.0617
39.5106
39.0355
37.7374
35.7597
33.4769
31.1052
28.6918
26.3976
24.3202
22.5035
20.9615
19.6861
18.6545
17.8367
17.1959
16.6972
16.3145
16.019
15.7853
15.5878
15.4052
15.2273
15.0574
14.9071
14.783
14.681
14.5906
14.502
14.4101
14.3142
14.2154
14.1194
13.8451
13.4774
13.1722
12.9164
12.7
12.5189
12.3724
12.2548
12.1557
12.0692
11.9942
11.9329
11.884
11.8428
11.809
11.7859
11.768
11.7493
11.7261
11.7074
11.6925
11.6869
11.6897
11.692
11.6817
11.6729
11.6591
11.6403
11.6265
11.6166
11.6072
11.678
11.627
11.7604
11.7232
11.8652
11.8277
11.8221
1.62859
1.54028
1.41775
1.19068
0.908835
0.573356
0.188933
-0.259553
-0.710848
-1.14063
-1.55767
-1.83813
-1.91482
-1.74796
-1.36778
-0.777006
-0.0245523
0.696071
1.27484
1.65399
1.7401
1.2923
0.736136
0.118384
-0.366392
-0.606446
-0.544633
-0.492436
0.319459
1.05136
1.60469
0.359158
-1.09279
-4.19737
-4.75382
-3.31782
-1.21207
4.83848
2.69479
-3.24041
-15.1588
-28.208
-30.1274
-7.68043
-8.96451
-62.66
-84.1679
-91.9668
-120.075
-152.478
-202.236
-240.232
-232.744
-272.211
-310.782
-281.528
-276.679
71.2056
309.045
555.353
954.069
995.471
925.45
922.025
902.077
796.597
614.323
435.423
327.862
292.473
282.531
240.459
154.269
68.0202
17.4447
-10.6085
-50.1881
-45.8471
-45.876
-48.3174
-50.0444
-48.5628
-46.9593
-41.549
-32.1332
-19.2543
-4.06332
12.2378
24.553
33.0133
42.8632
46.2874
48.0753
48.1153
46.6894
44.2448
41.2224
38.0208
35.0051
32.4912
30.7757
29.9334
29.9058
30.617
32.0473
33.9384
35.5138
36.6977
37.5513
37.8943
37.6174
36.717
35.287
33.5001
31.5232
29.5682
27.6022
25.7689
24.1256
22.7042
21.5069
20.5188
19.7184
19.0794
18.5736
18.175
17.8614
17.6116
17.4184
17.2547
17.1063
16.9647
16.8302
16.7102
16.6087
16.5215
16.441
16.3603
16.2765
16.1897
16.1015
16.0152
15.8636
15.6508
15.4378
15.227
15.0204
14.8227
14.6377
14.4641
14.2978
14.1379
13.9868
13.8468
13.717
13.5956
13.483
13.3805
13.284
13.1902
13.0983
13.0139
12.9353
12.8665
12.805
12.7424
12.6729
12.6061
12.5418
12.471
12.4197
12.3556
12.3181
12.3225
12.2244
12.2909
12.199
12.2147
12.1234
12.09
5.49802
4.78627
3.79981
2.72426
1.41735
-0.0174499
-1.34233
-3.18775
-4.8695
-5.18257
-6.98191
-7.24008
-6.31597
-4.29679
-1.83977
1.58916
3.34239
5.75692
6.36839
5.8425
3.20802
-0.845418
-5.03898
-7.83023
-8.3567
-5.98039
-1.01679
4.30879
10.1318
12.8646
8.89569
-5.42879
-22.0646
-35.8399
-34.011
-18.1841
6.01807
24.4457
5.45946
-38.817
-94.2699
-117.396
-76.7642
-38.5237
-73.0896
-134.824
-157.355
-150.244
-148.532
-158.565
-153.461
-123.107
-83.4
-83.1068
-127.119
5.90987
215.865
462.392
1085.63
1435.94
1488.21
1342.54
1198.66
1094.51
928.164
709.355
493.922
339.776
262.577
234.914
208.233
154.326
84.8611
27.3141
-1.39441
-19.9071
-34.4885
-30.2111
-30.1996
-32.5663
-35.1029
-36.6346
-36.8464
-33.5444
-26.5198
-16.3095
-4.42873
7.2507
16.3153
23.9133
28.7651
33.2288
34.5691
34.906
34.2324
32.8839
31.2741
29.6777
28.3401
27.495
27.2947
27.7213
28.6977
30.1174
31.8561
33.8193
35.4444
36.5477
37.2236
37.3899
37.0504
36.2609
35.1526
33.8518
32.3229
30.6819
29.3231
28.0729
26.9162
25.8956
25.0163
24.2674
23.6331
23.098
22.6487
22.2706
21.9516
21.6816
21.4329
21.2148
21.0189
20.8347
20.6561
20.4862
20.3293
20.1828
20.0413
19.9002
19.7575
19.6134
19.4692
19.3259
19.1813
19.0227
18.8523
18.6711
18.4806
18.2847
18.0866
17.8862
17.6822
17.476
17.2713
17.07
16.8718
16.6769
16.4863
16.3005
16.1179
15.9372
15.7588
15.5862
15.4182
15.2583
15.1035
14.9475
14.7888
14.6337
14.4862
14.3297
14.2067
14.0468
13.9484
13.8339
13.6708
13.6117
13.456
13.289
13.1581
13.129
13.6269
6.08936
-0.505525
-7.5228
-14.7757
-21.6864
-27.6878
-32.3482
-34.8195
-35.2346
-31.4876
-22.445
-7.25297
12.4835
31.4723
47.799
54.4031
50.8837
35.5058
8.15917
-26.2985
-63.7779
-89.0446
-89.747
-61.938
-9.34527
48.4074
89.9179
101.856
68.5359
-8.6999
-99.0567
-157.147
-154.937
-94.1874
-13.9564
44.5478
35.6219
-33.9361
-111.412
-150.73
-122.062
-69.0507
-44.759
-59.8205
-73.4293
-51.0464
-25.2112
-12.6989
18.2622
45.4091
102.401
142.781
138.998
148.327
267.843
614.75
1359.07
2025.97
2255.8
2080.17
1746.15
1439.25
1179.86
915.52
648.49
435.151
304.706
239.332
200.2
156.953
104.163
52.8658
14.4865
-5.69618
-14.1705
-17.4618
-9.25224
-9.50801
-14.852
-21.658
-27.6086
-30.707
-29.8774
-25.6866
-18.4291
-10.0063
-1.81883
5.30175
11.1928
15.6464
18.8112
20.479
21.2414
21.3058
20.8433
20.3817
20.0752
20.0504
20.4469
21.3189
22.6649
24.4449
26.5562
28.5187
30.6505
33.3139
34.7679
36.0852
37.0164
37.5561
37.7025
37.5159
37.2506
36.7564
35.8529
35.207
34.6655
34.0036
33.3498
32.7465
32.1845
31.6563
31.1555
30.6855
30.2437
29.8248
29.4285
29.0669
28.7369
28.4377
28.1604
27.8911
27.6251
27.3672
27.117
26.8699
26.6227
26.3742
26.1248
25.8753
25.6261
25.377
25.1287
24.8806
24.6301
24.3762
24.1191
23.8598
23.5973
23.3302
23.0598
22.7886
22.5174
22.2455
21.9733
21.7014
21.4299
21.1584
20.8865
20.6146
20.3449
20.0774
19.8143
19.5532
19.2893
19.0248
18.7606
18.5072
18.2357
18.0141
17.7147
17.5308
17.2349
16.9928
16.7296
16.496
16.0524
15.8306
15.4478
-90.111
-156.109
-217.769
-270.692
-310.759
-335.934
-339.457
-316.388
-262.003
-173.821
-49.815
100.239
253.139
376.508
437.355
420.549
319.005
151.242
-60.4262
-277.811
-447.308
-517.171
-436.716
-216.706
64.6251
300.254
397.068
325.396
131.218
-89.134
-234.137
-254.907
-178.096
-75.2055
-1.61973
28.3433
34.495
19.0847
-6.57866
-28.7911
-30.508
3.6458
41.0676
65.274
65.1108
85.1851
120.299
150.519
180.192
248.168
285.801
356.367
444.423
399.956
402.778
686.444
1410.63
2428.76
3159.54
3251.12
2828
2249.47
1735.08
1304.29
928.679
622.849
409.739
281.648
207.612
156.053
112.23
74.9944
44.3615
23.9335
15.1602
13.3127
15.8916
16.4836
12.2081
3.33592
-6.3274
-17.6116
-25.5424
-30.2922
-31.414
-30.1614
-25.7552
-20.0406
-14.5198
-10.0113
-6.29187
-3.46671
-1.42822
0.0474621
1.18848
2.4483
3.24942
4.08245
5.16846
6.59154
8.38368
10.5745
13.1953
16.1278
19.2786
22.7192
26.1107
29.3728
32.5455
35.5284
38.2921
40.8529
42.5573
44.1167
46.127
46.7583
47.3306
48.0718
48.213
48.0122
47.7756
47.4563
47.0707
46.6187
46.1276
45.6197
45.0968
44.5714
44.0542
43.5548
43.085
42.6533
42.2472
41.8401
41.4335
41.0308
40.628
40.2219
39.8121
39.3999
38.9843
38.5642
38.1393
37.7115
37.2825
36.852
36.4197
35.986
35.5527
35.1197
34.6855
34.2514
33.8196
33.3898
32.9603
32.5317
32.1045
31.6774
31.2508
30.8238
30.3959
29.9694
29.5456
29.1244
28.7049
28.2819
27.8607
27.4332
27.0203
26.5713
26.1959
25.6798
25.3625
24.7859
24.433
23.8459
23.5039
22.6633
22.3089
21.5147
-1643.15
-1777.69
-1836.53
-1796.86
-1642.46
-1381.17
-994.559
-482.153
127.347
774.013
1361.95
1767.22
1875.35
1637.58
1103.32
403.202
-304.293
-887.89
-1254.59
-1338.91
-1109.67
-616.738
-7.78894
514.332
773.16
707.24
399.909
32.0871
-221.925
-279.611
-174.335
-15.4725
88.8524
104.047
77.0562
65.1865
87.4136
103.254
107.402
106.145
121.404
170.535
204.566
236.809
252.324
315.951
368.934
410.535
479.412
571.589
673.771
806.042
870.597
823.599
876.33
1385.47
2503.91
3851.9
4704.81
4673.27
3980.44
3098.1
2303.58
1649.85
1126.64
730.847
454.698
275.127
163.909
96.7388
57.6856
44.4057
43.7198
48.8359
61.1886
72.2685
77.0624
72.2548
58.1876
37.6399
14.5131
-8.32386
-25.9177
-41.4694
-52.2814
-62.0216
-64.9738
-62.8005
-57.4657
-55.0747
-52.5156
-49.871
-47.2252
-44.574
-41.936
-39.4795
-36.7908
-34.0398
-31.2071
-28.2178
-24.9662
-21.342
-17.1688
-12.3204
-6.77107
-0.504494
6.41097
13.8942
21.7639
29.7815
37.6776
45.1406
51.9477
58.1788
63.6115
66.8036
69.1708
72.349
74.5524
74.8428
75.2075
75.266
75.0938
74.7305
74.2408
73.6787
73.0793
72.463
71.838
71.2043
70.5642
69.9415
69.3705
68.811
68.2324
67.6542
67.073
66.482
65.8773
65.2626
64.6333
63.9849
63.3169
62.6321
61.9341
61.2246
60.505
59.7776
59.0471
58.3147
57.5799
56.8454
56.1141
55.385
54.6562
53.9297
53.2061
52.4839
51.7637
51.0428
50.3207
49.6012
48.8882
48.1804
47.4788
46.7752
46.0766
45.3617
44.6641
43.9017
43.239
42.3559
41.7758
40.7481
40.1645
39.0579
38.4651
37.0072
36.3902
34.9449
-4351.31
-4422.16
-4184.84
-3650.28
-2841.35
-1806.54
-632.965
574.293
1690.01
2580.58
3121.66
3219.69
2838.82
2027.16
927.883
-238.894
-1226.35
-1829.09
-1940.74
-1576.51
-861.27
0.382496
763.585
1207.07
1217.53
845.219
287.649
-199.364
-418.429
-317.935
-14.8568
283.274
417.975
384.231
300.875
267.864
304.537
340.198
375.888
415.397
475.15
581.851
618.591
684.296
746.253
855.241
989.044
1110.79
1234.01
1384.95
1589.81
1808.91
1915.16
1905.75
2089.56
2943.86
4599.47
6470.44
7598.27
7474.4
6414.5
5058.85
3797.43
2736.14
1875.17
1198.6
687.551
318.75
70.8103
-72.2747
-124.061
-110.006
-42.8888
51.3749
143.438
207.878
234.885
225.263
187.882
135.435
79.2556
26.8012
-18.9492
-57.4929
-90.5195
-127.761
-152.652
-167.638
-171.347
-180.755
-186.117
-187.652
-185.749
-181.085
-174.446
-166.62
-158.309
-150.142
-142.44
-135.228
-128.218
-120.897
-113.048
-104.128
-93.2957
-80.0201
-64.0654
-45.5426
-24.9017
-2.86144
19.6847
41.7828
62.5399
81.1873
97.195
110.471
120.066
129.565
133.779
136.847
138.64
139.383
139.383
138.924
138.222
137.428
136.651
135.955
135.362
134.859
134.398
133.895
133.204
132.381
131.572
130.782
130.001
129.212
128.395
127.534
126.617
125.634
124.585
123.476
122.312
121.101
119.846
118.555
117.239
115.904
114.552
113.188
111.818
110.441
109.054
107.663
106.27
104.875
103.479
102.073
100.655
99.2341
97.8248
96.4291
95.0514
93.6764
92.3078
90.9
89.5018
87.9762
86.5776
84.8098
83.5026
81.4214
80.1778
77.7713
76.5916
73.2719
72.0435
67.1124
31.6243
36.4368
47.6613
57.8202
63.313
64.829
65.8271
69.2583
78.6816
97.4904
127.045
166.02
211.499
257.45
299.89
331.742
356.114
367.792
378.605
379.068
395.159
392.749
439.578
445.98
539.774
13.3147
13.8129
20.2134
27.1214
31.7695
34.4914
37.0552
40.6692
46.5391
56.6149
71.7954
91.3348
113.745
136.025
155.926
170.673
182.142
187.827
193.165
194.832
204.195
206.319
231.175
239.177
286.177
7.12084
6.53892
10.554
15.7712
19.9028
23.0872
26.4625
30.5506
35.0783
41.2346
50.0418
61.1717
73.7532
86.3381
97.3726
105.251
111.553
114.982
118.13
120.2
126.724
129.782
146.526
153.669
182.933
5.47579
4.36652
7.00828
11.0868
14.7726
18.0893
21.8391
26.4025
30.6233
34.569
39.6964
45.9499
52.6779
59.6097
65.4846
69.3157
72.6221
74.8099
76.696
79.0076
83.6536
86.6445
99.7716
105.584
125.656
5.66313
4.38881
6.06343
9.41447
12.8123
16.1921
20.1801
25.0111
29.5024
32.1411
35.0489
38.2118
41.0684
44.1474
46.7021
47.6066
48.7679
50.0891
51.0504
53.5026
56.6621
59.7061
70.3671
75.1179
89.8429
6.61991
5.39089
6.39162
9.28975
12.5454
16.0056
20.0565
25.1187
29.9753
31.7864
33.1328
34.2147
34.4199
34.6722
35.0619
33.7211
33.0909
33.7804
33.9837
36.479
38.3673
41.523
50.2555
54.0888
65.2914
7.74438
6.75657
7.43173
10.0677
13.3133
16.9017
20.8362
25.7145
31.7363
32.5344
32.6658
31.9516
30.2985
28.3569
27.3267
24.5247
22.035
22.352
21.9317
24.3625
25.2225
28.5213
35.6599
38.7465
47.1557
8.77008
8.24954
8.91404
11.499
14.8406
18.613
21.6584
27.7914
33.5063
33.7863
32.8482
30.4227
27.4858
23.9594
21.4506
18.104
13.2326
13.528
12.6277
15.0108
15.0639
18.3948
24.2295
26.6124
32.9743
9.08403
9.2177
10.2023
12.9538
16.4729
19.9962
23.0587
30.0991
34.325
34.874
32.9512
29.2665
25.3136
20.5349
16.5509
12.5253
5.84521
6.09249
4.84347
7.14774
6.51009
9.81816
14.5284
16.3316
20.8458
8.92695
10.0367
11.7297
14.7592
18.3938
21.0171
25.0224
31.5449
34.965
35.6248
32.7789
28.5404
23.4095
17.4896
12.0962
6.88073
-1.43061
-1.04257
-2.43697
-0.128284
-1.23846
2.04858
5.80272
7.1408
10.1932
13.8613
16.2306
19.4431
22.943
25.5748
28.5639
32.2049
36.0054
38.317
38.3172
34.7285
28.5971
21.8657
14.9621
8.39594
0.905943
-9.09375
-8.3396
-9.625
-7.16618
-8.52565
-5.2031
-2.2402
-1.47052
1.23856
26.0613
28.5998
32.1762
34.0819
36.4959
38.513
40.3076
42.234
43.7077
43.1026
39.0971
32.0459
23.9844
16.3675
9.76947
-1.74993
-13.3225
-12.2432
-13.2969
-10.5858
-12.0571
-8.74626
-7.17526
-6.84263
-5.76298
37.818
39.1988
41.4283
44.0499
45.902
47.5091
48.3098
48.6776
48.4904
47.1448
43.1101
36.3614
28.5023
21.9702
16.4654
-0.0476975
-10.7917
-10.5715
-11.433
-8.57057
-9.68382
-6.47306
-6.60499
-6.81638
-7.74925
46.7349
49.009
50.0438
51.1335
52.3008
53.0805
53.0684
52.48
51.4394
49.2988
45.1754
39.3908
33.4025
30.2036
23.3673
5.45353
-2.52737
-4.79322
-5.686
-2.97985
-3.57089
-0.750015
-2.15031
-3.0093
-5.86318
52.9159
53.2856
53.4541
53.6073
53.9083
54.0201
53.5318
52.5723
51.0381
48.1775
43.8523
39.1884
37.0266
33.7815
27.8557
14.1157
6.77737
3.17296
1.69343
3.6918
3.47642
5.79306
3.68004
2.42464
-1.85873
51.9615
51.6444
51.1114
50.5495
50.1265
49.6099
48.8671
47.9612
46.2102
42.733
38.6259
36.9399
34.4259
31.3297
27.7256
20.8191
14.9921
11.056
8.75364
9.40853
9.07387
10.713
8.32594
6.89445
1.86792
43.3911
42.7569
41.8724
40.9349
40.0434
39.0334
38.2279
37.5773
35.5205
31.868
30.1637
28.4408
25.0079
23.406
22.3699
20.4447
17.7497
15.5173
13.3183
13.0192
12.0879
12.822
10.2377
8.77476
3.62484
28.3131
27.8906
27.1405
26.1947
25.0708
23.9247
23.2025
22.7415
20.2063
18.6985
17.4598
14.8518
12.7675
11.4305
11.7133
12.7415
13.0015
13.4145
12.6665
12.7591
11.6546
12.0633
9.44865
8.1085
3.52384
16.4603
16.5138
15.6372
14.4818
12.9708
11.9678
10.9778
9.93753
9.31776
7.86191
6.51447
4.54577
3.05813
2.02198
2.35063
3.99413
5.40052
7.30492
8.3049
9.61975
9.58739
10.4669
8.67861
7.73197
4.46661
14.7515
14.3365
13.5384
12.6538
11.5721
10.886
9.8974
8.33284
7.93014
6.79166
5.43436
3.4666
1.9307
0.96214
1.06918
2.0723
2.93319
4.11606
5.57651
7.35826
8.73435
10.2005
9.99522
9.58222
7.9668
10.5552
10.2304
9.80077
9.48748
8.98128
8.72263
8.74417
9.23176
9.09631
8.4559
7.53954
6.02184
4.87605
3.84639
3.64756
3.98716
4.08042
4.16643
5.06776
6.53834
8.33671
9.97736
10.772
10.7451
10.1332
8.43643
8.29322
8.17528
8.07748
7.91579
7.82446
7.88133
8.05111
7.79868
7.16155
7.12504
7.34039
6.86761
6.08127
5.79054
5.78938
5.4136
4.76085
4.81718
5.64609
7.11179
8.70123
9.78656
9.99346
9.84941
9.90854
9.65779
9.54133
9.42217
9.25633
9.05434
8.82082
8.49921
8.10209
7.59459
7.36792
7.91696
7.76179
7.21654
6.96652
6.92141
6.24416
4.93007
3.9859
3.8994
4.68945
6.02871
7.12384
7.38896
7.36622
15.6394
15.1219
14.6911
14.2951
13.8779
13.4172
12.8478
12.2029
11.5827
11.1145
10.6811
10.021
8.89135
7.92771
7.24485
6.9879
6.05334
4.0633
2.05734
0.911654
0.828528
1.59498
2.348
2.32114
1.56117
17.8079
17.0466
16.4054
15.7977
15.1957
14.5927
13.8068
12.9308
12.32
12.0643
11.8193
11.2189
10.2413
8.76725
6.93697
6.28742
5.03127
2.54226
-0.424712
-2.55669
-3.75778
-3.43806
-3.42323
-3.86268
-5.72235
10.2305
9.93898
9.72599
9.52683
9.33404
9.04106
8.59894
8.29079
8.2612
8.22115
8.10564
8.05036
7.84932
7.32621
6.4388
5.08009
3.46465
2.72411
1.17326
-1.36748
-3.477
-3.08589
-3.76819
-4.29167
-6.55524
9.60606
9.12124
8.7887
8.63296
8.46869
8.02512
7.38815
7.0994
7.11553
6.82622
6.50027
6.37349
6.20293
5.98624
5.51969
4.91248
4.76251
5.44955
5.22458
4.55062
3.21333
3.55889
3.04447
2.62664
0.599112
12.4361
11.405
10.7014
10.1243
9.7654
9.10248
8.34918
7.82142
7.50794
7.10125
6.59319
6.20182
5.84502
5.54701
4.9824
4.90211
5.78458
7.61498
8.84684
9.37701
9.056
9.37659
9.00045
8.5893
6.92442
11.5857
11.6141
11.4264
10.8495
10.3498
9.99374
9.21434
8.48901
7.88923
7.33936
6.73533
6.2181
5.70513
5.16766
4.4797
4.51193
5.70618
7.89033
9.7987
10.9338
11.3363
11.7665
11.5919
11.267
10.0762
10.6926
10.7849
10.6724
10.6746
10.4766
10.122
9.40682
8.87687
8.03362
7.38031
6.7101
6.12092
5.46735
4.68069
3.84994
3.8519
5.12615
7.46377
9.74895
11.2982
12.0813
12.6519
12.6067
12.3839
11.5295
10.5633
10.5944
10.5231
10.64
10.5309
10.2081
9.65113
8.7538
8.18435
7.31843
6.53111
5.88783
5.12693
4.14433
3.19084
3.1529
4.43035
6.82782
9.31301
11.1085
12.1168
12.8257
12.903
12.7911
12.2269
11.2888
11.1666
11.0334
10.9403
10.7265
10.3741
9.85097
8.88622
7.96479
7.41355
6.40691
5.64678
4.77918
3.59791
2.49439
2.42009
3.71998
6.19942
8.82982
10.7647
11.9247
12.7226
12.9014
12.8795
12.5541
12.2819
11.9748
11.6848
11.3792
10.9929
10.5313
9.94345
8.95385
7.76254
7.28056
6.47108
5.37674
4.42855
3.03799
1.76318
1.68166
3.06144
5.66128
8.4047
10.3923
11.6359
12.4674
12.6994
12.7278
12.5758
13.4454
12.9266
12.4171
11.8702
11.267
10.6385
9.92799
8.89079
7.53548
7.04135
6.30026
5.16483
4.04779
2.44297
1.02264
1.00339
2.53983
5.299
8.14276
10.1299
11.4092
12.2409
12.4833
12.5336
12.5038
14.7302
13.8934
13.0783
12.2649
11.4445
10.6496
9.81171
8.68963
7.30886
6.6656
6.05628
4.88356
3.59511
1.77718
0.261182
0.398513
2.18663
5.16355
8.10992
10.0645
11.339
12.1548
12.3632
12.4159
12.472
15.6563
14.5216
13.4554
12.4402
11.4638
10.5413
9.60679
8.35311
6.9714
6.33874
5.66188
4.45058
3.00269
0.977089
-0.5508
-0.127146
2.02292
5.28852
8.33882
10.2341
11.4648
12.2592
12.3882
12.4259
12.5504
15.9388
14.7396
13.5652
12.4278
11.3377
10.3274
9.32954
7.88159
6.53062
5.96734
5.059
3.80207
2.18218
-0.039043
-1.45577
-0.596506
2.03848
5.67058
8.8301
10.6479
11.8055
12.5886
12.5963
12.5985
12.803
15.7679
14.7307
13.6256
12.4735
11.3172
10.288
9.10102
7.36094
6.0875
5.35498
4.1627
2.82472
1.00902
-1.36618
-2.51398
-1.05136
2.20149
6.25997
9.53686
11.2639
12.3297
13.1195
12.9731
12.8805
13.253
15.5402
14.7575
13.835
12.7534
11.5744
10.5759
9.32928
7.19311
5.94654
4.87113
2.89516
1.43897
-0.72386
-3.13978
-3.82727
-1.58806
2.40795
6.92475
10.3507
11.9821
12.9557
13.796
13.4744
13.342
13.8384
16.0157
15.4371
14.7307
13.7552
12.5558
11.6384
10.3684
7.65446
6.65465
5.25695
2.68338
-0.636064
-3.24744
-5.53171
-5.54811
-2.36805
2.4553
7.46518
11.1054
12.6735
13.5769
14.5096
14.0135
13.869
14.4588
18.4218
17.8783
17.3204
16.3686
15.044
14.1925
13.0105
9.84675
8.24255
6.762
4.26141
-1.35163
-5.85609
-8.45632
-7.83464
-3.75716
1.92893
7.40379
11.3481
12.8643
13.6944
14.6806
13.9666
13.7288
14.3614
24.1975
23.5016
22.9819
21.6261
19.8888
18.9006
17.909
15.0684
11.7392
10.4258
7.49269
0.345979
-8.21572
-12.2959
-11.4122
-6.77547
-0.354149
5.36186
9.61008
11.0053
11.6323
12.5955
11.4058
10.991
11.3452
32.1304
31.2824
30.5161
28.6344
26.4289
25.1907
24.2798
21.155
15.6987
13.6635
9.76654
-0.435624
-14.0589
-17.8651
-16.834
-12.2454
-5.73078
-0.179506
4.07352
5.4658
5.6105
6.57027
4.48998
3.97277
3.50387
35.6948
34.7026
33.4379
32.307
30.3684
29.3284
28.3169
22.1378
13.4697
10.2495
5.13195
-6.34137
-17.4354
-21.4249
-20.6003
-17.236
-11.9293
-7.25883
-3.60718
-2.26314
-2.86655
-2.07126
-5.06444
-5.82157
-7.30415
30.62
30.7443
30.6487
29.8062
28.3527
27.6475
26.8333
22.3543
14.9832
8.12801
4.97996
-2.38813
-14.0853
-18.2627
-19.4234
-19.3034
-16.7267
-13.5285
-11.0955
-9.75727
-10.9244
-10.0822
-13.1965
-14.1355
-15.9574
22.2698
23.4757
24.5732
24.9461
24.9913
25.651
26.1724
23.8583
19.1353
15.4184
11.4488
2.48489
-3.29539
-11.6681
-15.6296
-20.2619
-20.6082
-18.5762
-16.9628
-15.1116
-16.2117
-14.8019
-17.0212
-17.7791
-19.083
15.2833
15.9327
17.3435
18.2307
19.3532
21.0589
22.8332
22.9
21.7953
21.0109
18.0356
10.593
0.203927
-5.00476
-10.9615
-20.1905
-22.1161
-20.6301
-19.4186
-16.7727
-17.2658
-15.0646
-15.7474
-15.9802
-16.1703
9.82183
10.3837
11.5389
12.1166
13.5515
15.6711
17.7813
20.0028
22.3441
24.1009
22.4448
16.1331
6.47661
-0.848007
-4.54616
-14.2513
-18.9101
-17.3175
-16.2102
-12.8956
-12.6025
-9.77707
-8.82339
-8.49766
-7.31361
8.02632
7.85149
7.98369
8.34274
10.1017
11.684
14.8205
18.6665
23.5971
27.1868
27.29
22.1739
13.8179
6.78009
3.61848
-5.0563
-11.5132
-9.2932
-8.01912
-4.31449
-3.35234
-0.102524
1.94884
3.25289
5.2714
10.3873
9.8602
9.23368
9.35671
10.7507
13.2305
15.6977
20.058
26.6131
31.1368
30.7611
26.8172
19.9604
14.0093
11.1302
3.05539
-2.67369
-0.377554
1.28883
5.30457
7.18174
10.8857
14.7101
16.9106
21.5577
11.54
10.8161
9.56963
9.51973
10.9247
13.4262
16.9313
20.7604
27.994
33.7163
34.1626
31.4821
26.1114
21.8013
19.157
11.6334
8.21304
10.1009
12.3802
16.6936
19.9249
24.1933
30.3639
33.7727
41.6697
11.9297
11.0703
9.29246
9.28309
10.9566
13.6298
17.3162
22.6219
28.5885
36.2146
38.1042
37.1734
33.8028
31.907
29.2108
23.061
21.9281
23.5715
26.6584
31.2246
36.3244
41.3219
50.6238
55.9793
68.726
12.6214
11.7251
9.53199
9.95736
12.1289
15.1415
19.1256
24.6787
32.1563
39.2663
43.4225
45.3286
45.7499
46.1597
44.9113
41.23
41.215
43.0312
47.0889
52.0915
59.9332
66.0779
79.8034
87.5028
106.756
14.8594
13.732
11.4
12.7348
15.821
19.3521
23.6811
29.5578
37.5304
45.464
53.114
59.6129
65.2912
69.7139
71.3004
70.3782
71.2285
73.2467
78.4428
84.151
95.8963
103.874
123.93
134.735
163.252
19.9185
18.5823
16.809
19.7779
24.4843
29.0907
33.736
39.6698
47.9439
58.4285
71.3889
85.7756
100.011
110.705
117.071
118.871
120.444
122.627
128.95
136.082
153.534
164.646
194.354
209.528
252.928
31.1963
30.7777
30.7619
36.5708
43.8974
49.706
54.2555
59.6777
68.8496
84.2486
107.182
135.423
164.38
186.169
200.702
205.724
208.317
210.375
217.809
227.741
254.652
270.799
318.84
340.406
411.793
61.9982
65.771
71.1892
83.0566
95.6804
103.439
107.076
111.174
122.889
149.486
195.369
256.15
320.988
373.225
407.562
419.404
424.828
425.764
435.085
451.034
500.345
527.71
622.822
657.198
803.24
)
;

boundaryField
{
    inlet
    {
        type            calculated;
        value           uniform 0;
    }
    outlet
    {
        type            calculated;
        value           nonuniform List<scalar> 
57
(
539.774
286.177
182.933
125.656
89.8429
65.2914
47.1557
32.9743
20.8458
10.1932
1.23856
-5.76298
-7.74925
-5.86318
-1.85873
1.86792
3.62484
3.52384
4.46661
7.9668
10.1332
9.84941
7.36622
1.56117
-5.72235
-6.55524
0.599112
6.92442
10.0762
11.5295
12.2269
12.5541
12.5758
12.5038
12.472
12.5504
12.803
13.253
13.8384
14.4588
14.3614
11.3452
3.50387
-7.30415
-15.9574
-19.083
-16.1703
-7.31361
5.2714
21.5577
41.6697
68.726
106.756
163.252
252.928
411.793
803.24
)
;
    }
    upperWall
    {
        type            calculated;
        value           nonuniform List<scalar> 
245
(
221.535
-1124.33
-868.61
829.472
1721.12
1528.24
771.362
-3478.25
-2939.83
-588.225
1573.35
2860.03
3077.64
2287.76
-279.335
-6215.59
-4768.56
-2215.01
638.152
3087.97
4712.04
5242.56
4379.76
1052.7
-4978.08
-6184.51
-5818.93
-4260.94
-2166.61
85.2671
2439.22
4525.98
5729.86
5692.28
4515.74
2627.45
518.486
-1412.4
-2934.57
-3927
-4351.31
-4422.16
-4184.84
-3650.28
-2841.35
-1806.54
-632.965
574.293
1690.01
2580.58
3121.66
3219.69
2838.82
2027.16
927.883
-238.894
-1226.35
-1829.09
-1940.74
-1576.51
-861.27
0.382496
763.585
1207.07
1217.53
845.219
287.649
-199.364
-418.429
-317.935
-14.8568
283.274
417.975
384.231
300.875
267.864
304.537
340.198
375.888
415.397
475.15
581.851
618.591
684.296
746.253
855.241
989.044
1110.79
1234.01
1384.95
1589.81
1808.91
1915.16
1905.75
2089.56
2943.86
4599.47
6470.44
7598.27
7474.4
6414.5
5058.85
3797.43
2736.14
1875.17
1198.6
687.551
318.75
70.8103
-72.2747
-124.061
-110.006
-42.8888
51.3749
143.438
207.878
234.885
225.263
187.882
135.435
79.2556
26.8012
-18.9492
-57.4929
-90.5195
-127.761
-152.652
-167.638
-171.347
-180.755
-186.117
-187.652
-185.749
-181.085
-174.446
-166.62
-158.309
-150.142
-142.44
-135.228
-128.218
-120.897
-113.048
-104.128
-93.2957
-80.0201
-64.0654
-45.5426
-24.9017
-2.86144
19.6847
41.7828
62.5399
81.1873
97.195
110.471
120.066
129.565
133.779
136.847
138.64
139.383
139.383
138.924
138.222
137.428
136.651
135.955
135.362
134.859
134.398
133.895
133.204
132.381
131.572
130.782
130.001
129.212
128.395
127.534
126.617
125.634
124.585
123.476
122.312
121.101
119.846
118.555
117.239
115.904
114.552
113.188
111.818
110.441
109.054
107.663
106.27
104.875
103.479
102.073
100.655
99.2341
97.8248
96.4291
95.0514
93.6764
92.3078
90.9
89.5018
87.9762
86.5776
84.8098
83.5026
81.4214
80.1778
77.7713
76.5916
73.2719
72.0435
67.1124
61.9982
65.771
71.1892
83.0566
95.6804
103.439
107.076
111.174
122.889
149.486
195.369
256.15
320.988
373.225
407.562
419.404
424.828
425.764
435.085
451.034
500.345
527.71
622.822
657.198
803.24
)
;
    }
    lowerWall
    {
        type            calculated;
        value           nonuniform List<scalar> 
272
(
808.374
44.2425
-2876.6
-1268.27
1299.74
2677.38
2558.13
1562.87
-4010.26
-6279.32
-1913.57
2371.51
5123.84
5689.6
4164.12
-1942.26
-9234.36
-7055.55
-3102.54
1242.14
4889.72
7028.19
6751.2
3264.18
-1474.34
-4383.2
-5513.57
-5200.33
-3863.46
-1968.58
66.1247
1821.45
3070.19
3616.58
3578.61
3003.55
2121.98
1250.26
-65.4918
-425.933
-24.2068
-24.2738
-24.4985
-24.9398
-25.5716
-26.2226
-28.4227
-29.1235
-28.1987
-26.2094
-24.137
-24.1663
-25.4565
-30.1466
-39.5621
-55.1396
-67.6394
-88.9111
-118.149
-121.42
-110.384
-76.2143
-37.3963
-31.5353
-37.6346
-163.719
-779.079
-24.2068
-24.4552
-25.0019
-25.8691
-27.0859
-28.6765
-30.6622
-33.1488
-35.4594
-37.8476
-40.9462
-44.8869
-49.4758
-54.4443
-59.4294
-64.5406
-68.1758
-71.8244
-74.7992
-77.2
-79.122
-80.7452
-82.3855
-84.4331
-87.2337
-90.9456
-95.5107
-100.757
-106.52
-112.667
-119.012
-125.22
-130.801
-135.29
-138.341
-139.537
-138.214
-133.613
-124.853
-110.546
-88.7611
-57.3889
-14.189
42.7171
113.576
205.312
329.212
475.358
639.789
823.04
1028.65
1126.07
1351.42
1486.2
1591.52
1635.52
1599.37
1528.78
1429.02
1310.88
1177.28
1035.4
900.752
796.514
696.309
600.564
507.637
418.165
335.028
261.445
196.81
128.718
69.2171
-55.1186
-73.7246
-74.4773
-68.6825
-60.445
-50.5194
-39.5257
-27.8528
-15.834
-3.77848
8.07267
19.6309
30.8168
41.5494
51.7519
61.3493
70.269
78.4442
85.8142
92.3307
97.9799
102.794
106.815
109.482
111.258
113.174
113.321
112.89
111.879
110.314
108.24
105.736
102.877
99.7368
96.391
92.9106
89.3612
85.8008
82.2791
78.8422
75.5345
72.3932
69.4433
66.6994
64.1701
61.8593
59.768
57.8964
56.2418
54.7975
53.5504
52.4812
51.567
50.7843
50.1107
49.527
49.0185
48.5729
48.1807
47.8347
47.5286
47.2577
47.0176
46.8039
46.6111
46.4332
46.2643
46.0992
45.9345
45.7683
45.6005
45.4311
45.2613
45.0917
44.9225
44.7531
44.5827
44.4105
44.2356
44.0572
43.8741
43.685
43.4884
43.2827
43.0663
42.8382
42.5977
42.3444
42.0792
41.8011
41.5121
41.2093
40.8979
40.5703
40.2414
39.889
39.5508
39.1659
38.7977
38.4052
37.8213
37.6003
36.6804
36.3267
34.8617
34.802
31.3376
31.6243
36.4368
47.6613
57.8202
63.313
64.829
65.8271
69.2583
78.6816
97.4904
127.045
166.02
211.499
257.45
299.89
331.742
356.114
367.792
378.605
379.068
395.159
392.749
439.578
445.98
539.774
)
;
    }
    frontAndBack
    {
        type            empty;
    }
}


// ************************************************************************* //
